,meanSpeed,sdSpeed,maxAccelX,maxAccelY,maxAccelZ,maxGyroX,maxGyroY,maxGyroZ,minAccelX,minAccelY,minAccelZ,minGyroX,minGyroY,minGyroZ,meanAccelX,meanAccelY,meanAccelZ,meanGyroX,meanGyroY,meanGyroZ,sdAccelX,sdAccelY,sdAccelZ,sdGyroX,sdGyroY,sdGyroZ,pothole
0,0.0409999996423721,0.12965338293598483,0.0537872314453125,-0.93658447265625,0.295486450195312,-0.0073705646329033,0.019258649422908003,0.007239803423380409,0.016998291015625,-0.9638519287109379,0.19154357910156197,-0.0468934731063332,-0.00947579347461094,-0.00434867574399039,0.04268951416015625,-0.95267333984375,0.25347595214843743,-0.02078251019865135,-0.0017794709771691466,0.0002182993145537949,0.011710371558871878,0.009102737585568007,0.04024672658144377,0.010818571383289264,0.008887520742054487,0.0034371382770801507,False
1,1.3639999985694884,1.0240572718018397,0.120620727539062,-0.8756561279296879,0.398834228515625,0.0223926573937133,0.00655350681046699,0.0330500954439924,0.0268402099609375,-0.94378662109375,0.317001342773438,-0.0534283377891697,-0.0530919805434927,-0.0205529457126865,0.06634063720703115,-0.9179672241210938,0.3468078613281252,-0.02278012070070888,-0.018999284164345202,-0.0032762207730154718,0.031252184640828934,0.022494659874131677,0.028733876061799325,0.020177765164571367,0.019850760075563967,0.014960760422167296,False
2,4.435999965667726,1.3511575563113556,0.12060546875,-0.9062957763671879,0.404266357421875,-0.010554107399984003,0.0515992787525033,0.0189752890829236,0.0333251953125,-0.988800048828125,0.21409606933593803,-0.0842091536683055,-0.0316503379750467,-0.0436438839442186,0.07060394287109376,-0.9351348876953127,0.32356414794921873,-0.03236318630402823,-0.01106599359310814,-0.006806693535300823,0.024182166103210546,0.022506665016020673,0.057295747836468985,0.022679119363532913,0.02403943702729242,0.016592236170495097,False
3,7.059999942779543,0.5753258740916773,0.115386962890625,-0.89385986328125,0.379074096679688,0.0676967559614872,-0.0156564577324668,0.0619286153564846,-0.0363922119140625,-0.986602783203125,0.112136840820312,-0.28736413636725605,-0.176828037426863,-0.0183047051204416,0.05562744140624996,-0.932318115234375,0.273992919921875,-0.03874947322964914,-0.07441772234129837,0.020479868572374754,0.04757557654293574,0.03648384101675683,0.06835091069210207,0.09550341700902237,0.052869440613129384,0.028209028910685635,False
4,9.148999691009521,0.8649015948966796,0.127914428710938,-0.9144439697265621,0.357315063476562,0.0311954700608612,0.0948317043083046,0.0566598174558718,0.00811767578125,-1.01890563964844,0.20014953613281197,-0.038886945605118996,-0.0861649791728597,-0.031425833495152995,0.09076690673828129,-0.9612030029296881,0.2843749999999997,-0.006386153767566407,-0.015273654957378837,0.014687786149172318,0.038033127001550204,0.032031785726590954,0.052047877263500866,0.02281883834658834,0.04819480877727346,0.032339053693515925,False
5,11.198000240325928,0.44077701593948426,0.1375732421875,-0.874267578125,0.3155517578125,0.0908904922110963,0.0938428725955582,0.0435056658836434,-0.0102081298828125,-1.02006530761719,0.16168212890625,-0.0809475802812855,-0.0694738833568971,-0.0646021627748151,0.06765441894531254,-0.949479675292969,0.24674072265625008,0.007136925510470633,-0.01685219043030152,0.006193980063306278,0.05122233029522383,0.044436886919226704,0.04984468742463688,0.05201639856699339,0.0530386873045728,0.031237389140731618,False
6,12.055000019073463,0.09721122623821472,0.1201171875,-0.88226318359375,0.236358642578125,0.0274185750029108,0.0945741766308939,0.0452604227258966,-0.054962158203125,-1.05821228027344,0.156646728515625,-0.0746156484735131,-0.0968495814662576,-0.0476623277130391,0.059710693359375,-0.9548751831054686,0.1828063964843748,-0.010515864406730493,-0.008441155391115153,0.001193575537351711,0.05883678867896336,0.05214847477087271,0.023281956823018056,0.035599994679631076,0.06188045435543933,0.03374928511162896,False
7,11.74500007629394,0.211935475788639,0.16877746582031197,-0.891693115234375,0.21632385253906197,0.0730502423847645,0.122154139195864,0.0494873920080704,0.048065185546875,-1.09620666503906,0.105331420898438,-0.13728462261303997,-0.065876219040309,-0.0644804563129985,0.11674499511718743,-0.9657165527343743,0.17152404785156247,-0.022368715575513478,0.028227723236909606,0.0002312422774515814,0.04186288816316445,0.05997583447220455,0.039364755343097864,0.0597616836629193,0.06024746789747297,0.03812352841245853,False
8,10.99900007247924,0.21799343504060312,0.15380859375,-0.9417724609375,0.193023681640625,0.0618170289068103,0.22861986272617899,0.056597765802473,0.04083251953125,-1.08479309082031,0.147674560546875,-0.05159208821756,0.005980128227772929,-0.135908034645578,0.1064697265625,-0.9863449096679687,0.171282958984375,-0.0006913033557627592,0.09382087488495411,-0.02263969221642903,0.03421627402601561,0.04390528907894244,0.014709926051270368,0.03604079243332475,0.06790718622131012,0.05614799668820908,False
9,10.543000030517558,0.1498183719918972,0.253555297851562,-0.821044921875,0.348358154296875,0.133115976558739,0.3981822640670879,0.0432265666014031,-0.0088348388671875,-1.17503356933594,0.10260009765625,-0.222279941435137,-0.0460247499587494,-0.19202323565852802,0.12352905273437505,-0.9520858764648439,0.2401092529296875,-0.07611594027360925,0.11121901333872186,-0.057682284893185984,0.07761964410280513,0.10599324867979804,0.06840760437011073,0.10567599852683325,0.13329410900665917,0.07035739521445726,False
10,11.307999801635741,0.35736091864098174,0.125396728515625,-0.863555908203125,0.344863891601562,0.0449770623859122,0.13616556232298802,0.131358290239286,-0.0036163330078125,-1.06161499023438,0.20135498046875,-0.109679360017714,-0.12330409215456,-0.123420472294196,0.051715087890625,-0.9471801757812506,0.2492813110351563,-0.0197621200269874,-0.005934455015078157,0.0011990616491972654,0.05577347127372499,0.057870063086639806,0.05653601036545161,0.05535858936556162,0.0745730916862892,0.06676218066009228,False
11,12.101999950408958,0.23522079264490145,0.130783081054688,-0.8712615966796879,0.312393188476562,0.025476331619916,0.0704432739936859,0.101864313798877,-0.104904174804688,-1.02424621582031,0.16560363769531197,-0.0702121116110671,-0.0878156064164908,-0.0325507527396025,0.0085968017578125,-0.9415542602539061,0.2360488891601563,-0.010023099710233133,-0.0007832090449813936,0.015999233196370942,0.08241483440831843,0.05080484849103149,0.05294716940948115,0.035131664368313796,0.053448388911345374,0.04017209553129965,False
12,12.361999893188461,0.11163431213220373,0.0647430419921875,-0.8741607666015621,0.23402404785156197,0.13472239532827399,0.0532693470720919,0.0549777649113778,-0.165008544921875,-1.0341796875,0.14906311035156197,-0.0806985747193631,-0.117571105275946,-0.07172318921357801,-0.08753509521484384,-0.9664596557617186,0.20497589111328124,-0.008276572035748312,-0.04494201518596673,-0.003380643319357484,0.083908787569627,0.049699768622749524,0.029266615579081143,0.07223915241802847,0.06434695993447384,0.045940644090707104,False
13,12.21200017929078,0.1861180884020784,0.312026977539062,-0.8498077392578121,0.3577880859375,0.102746885384129,0.144079411818268,0.0721437023497015,-0.0149078369140625,-1.06512451171875,0.22578430175781197,-0.13906521211786702,-0.0599725235358214,-0.21167896239996697,0.11861572265625,-0.9699829101562498,0.2832809448242188,0.0013133378915725538,0.02966268769546603,-0.040685857658245714,0.11445617262153658,0.06653680107665451,0.041730923360123635,0.08169329266230668,0.07554711048902028,0.07283752874884383,False
14,12.631999969482433,0.1580294514609737,0.16650390625,-0.8287200927734379,0.25225830078125,0.044733383146169994,0.121615648023449,0.00575961848951437,0.0091094970703125,-1.05123901367188,0.13941955566406197,-0.10128081520404,-0.0146140964818098,-0.0659230906754944,0.10071868896484379,-0.9617767333984382,0.19254608154296862,-0.036927498201482264,0.035125496881491046,-0.029256502366007176,0.04841781414538705,0.06311697057188487,0.0354491340737199,0.045435335154332866,0.04379397788846003,0.027862736224873105,False
15,11.766999816894542,0.551604743839819,0.2232666015625,-0.88714599609375,0.23054504394531197,0.0877482284409118,0.0637089385452026,0.125826372022974,0.0303192138671875,-1.04583740234375,0.0064697265625,-0.0934761553134542,-0.18120068162066397,-0.0661321488210657,0.0872528076171874,-0.9739532470703136,0.09977874755859381,-0.015177994211023194,-0.02893769535191374,0.01932437623861118,0.060559543528489225,0.058910848303587074,0.07000305244415249,0.055511772270325686,0.07026788059956994,0.05340875772953187,False
16,9.086000061035149,1.29169312045008,0.15802001953125,-0.9045257568359379,0.1380615234375,0.0219947811268554,0.21452295212806302,0.0955275883011423,-0.0657196044921875,-1.03974914550781,0.00244140625,-0.11355186255879901,-0.158621869266755,-0.1445888745348,0.06123352050781254,-0.9763107299804681,0.05634307861328129,-0.03677673665217297,0.010770169659222128,0.0007685083957641826,0.06795881435943546,0.04045199807176785,0.04510887429156729,0.04179960907953067,0.0940485509661736,0.05998675579396195,False
17,5.762000060081478,1.3498379007766133,0.104263305664062,-0.986968994140625,0.084075927734375,0.00333267978812516,0.0608622856560169,0.0308724286206346,0.0037841796875,-1.03413391113281,-0.0416412353515625,-0.0396640560112041,-0.0413698106893999,-0.0367801188667573,0.0475570678710937,-1.0066711425781247,0.0080108642578125,-0.01994444003521432,-0.006146389374626573,-0.0011479289562677446,0.03113841630240748,0.01620340957655256,0.04075383980294658,0.013784002492891773,0.028529933277750403,0.018879237188495202,False
18,1.8860000401735288,0.9265731767184768,0.0833282470703125,-0.9524993896484379,0.2322998046875,-0.00239844287772536,0.00224451216671878,0.008557269214642609,0.0561981201171875,-0.984893798828125,0.12200927734375,-0.0232776258239466,-0.0201936852816348,-0.0109008509739123,0.06948394775390625,-0.9763259887695312,0.14318237304687492,-0.012913082230354408,-0.006617688992737897,-0.0016078302449135354,0.008321163764999858,0.010381119519380562,0.032875371926447655,0.007665259213882078,0.007734390334406497,0.005269419862019696,False
19,0.2929999917745588,0.1404793332726084,0.0949249267578125,-0.9060821533203121,0.373367309570312,0.00967047055029573,0.00430100516047797,0.00400459533115215,0.0699615478515625,-0.9610748291015621,0.230316162109375,-0.0267168320556749,-0.00945502081810832,-0.00861559244251534,0.08359527587890625,-0.93946533203125,0.28664398193359364,-0.01341482177972533,-0.003316967137693691,-0.002047970878270934,0.008041551537103436,0.018824610294156698,0.05773021556851256,0.009645707780668778,0.0038779923624923628,0.0038231046850491623,False
20,1.7660000324249272,1.3712136402933348,0.21058654785156197,-0.821807861328125,0.533721923828125,0.129960130666995,0.038147119454295,0.0996714669573056,-0.070068359375,-0.9787750244140621,0.292327880859375,-0.0639190619552098,-0.0965640905974011,-0.0809201497220576,0.0859939575195313,-0.8869552612304688,0.44514923095703135,0.006965764147211286,-0.034507110876374716,0.016793307938599865,0.09068155571604672,0.057674365780899704,0.06928782071411624,0.053227330016504835,0.04595370831958746,0.05855005285266151,False
21,6.2350000858306895,1.0874050510216962,0.24436950683593803,-0.8211212158203121,0.466140747070312,0.0880065550666495,0.0698107732347921,0.0924167498318207,-0.0841064453125,-1.18617248535156,0.16600036621093803,-0.10556024875968902,-0.0942830931237482,-0.0688802647499184,0.0524658203125,-0.9536026000976559,0.302569580078125,-0.020714812643741552,-0.021775389916254682,0.015410834385128826,0.09866861474164892,0.10882717719187866,0.10918706422777165,0.060416787127112764,0.05801999113172967,0.04928089418785778,False
22,8.076000022888183,0.4490285856931804,0.247711181640625,-0.8125762939453121,0.487228393554688,0.0253370482949049,0.17772259323702105,0.0341345346398726,0.0767669677734375,-1.02751159667969,0.19337463378906197,-0.0757813140826408,-0.0212440360155621,-0.0827063318651738,0.15418853759765616,-0.9144180297851566,0.3616043090820314,-0.024961995318588996,0.07770233207174757,-0.03212264959437225,0.060161537865013964,0.05819136019649597,0.08945484502428332,0.03315021011748303,0.06548279990846219,0.03981081674294294,False
23,9.93300018310546,0.9912511438548115,0.054840087890625,-0.863616943359375,0.445465087890625,0.12070111850511599,0.0420491830834791,0.112460232827975,-0.15484619140625,-1.01193237304688,0.333709716796875,-0.0996911743493721,-0.182964226894515,-0.0351241653009461,-0.0494537353515625,-0.9305603027343755,0.38433685302734377,-0.0214689932328411,-0.06346683057050344,0.024360280701896504,0.06559986982801407,0.052950147230325484,0.03393118488779819,0.06435734149056238,0.071294241459921,0.047851036720990114,False
24,12.28799991607666,0.3669637492400909,0.17503356933593803,-0.88909912109375,0.322601318359375,0.0340509113816441,0.0941936109111216,0.0488205364711146,0.0384674072265625,-1.07435607910156,0.0902862548828125,-0.0953696628485006,-0.0745626515678205,-0.0747536002179792,0.08497619628906256,-0.9699371337890627,0.18997802734374997,-0.02510980075908841,-0.013132073966791622,0.006707197836975464,0.04143831143384668,0.06109162401523046,0.07523689496432838,0.048895685954467624,0.05112627990569658,0.04343416351611544,False
25,10.822000122070298,1.3724576309541836,0.1029052734375,-0.9099273681640621,0.0636138916015625,0.048363804344166,0.0483688643502371,0.0272364147843494,-0.03173828125,-1.1641845703125,-0.136032104492188,-0.07864581015113001,-0.0383902660618192,-0.0627704405770586,0.0442611694335937,-1.0207351684570305,-0.04400482177734385,-0.013576848500445765,0.003597025157926416,-0.00974421348088002,0.050062329737732114,0.06378353647701762,0.07054527314706692,0.03691304035802704,0.029631399789296593,0.028964029424651243,False
26,5.741000187397005,2.1243375902063413,0.104766845703125,-0.9534454345703121,0.24995422363281197,0.009541307237426891,0.0438721168496383,0.016906012915932,0.0153961181640625,-1.05442810058594,-0.17431640625,-0.0407429025687952,-0.0253477009392652,-0.0335829939781172,0.05176849365234375,-1.004953002929687,-0.013084411621093648,-0.0142809882926627,-0.0028856415675444697,-0.0007784952498519627,0.027698804996893884,0.037639116296539474,0.1535805000343488,0.016338840055746193,0.019740446265628438,0.014016574988926564,False
27,1.0679999887943274,0.8375068652559616,0.135467529296875,-0.7652740478515621,0.618545532226562,0.0535090315701991,0.0243096007463523,0.0333518315954983,0.026885986328125,-0.9663238525390621,0.264022827148438,-0.077201311575871,-0.0492740728047551,-0.0727245377834478,0.07760009765624995,-0.8829498291015625,0.4916748046875,-0.01283417276725537,-0.008532741501002975,-0.0006424876129816197,0.0330246715829468,0.061698812890825336,0.10267657721837417,0.038830232108292784,0.021468252362744026,0.02988856895736305,False
28,5.042999839782713,1.7020839817053677,0.227142333984375,-0.72613525390625,0.613006591796875,0.0509108516107178,0.11366158479571,0.11368581956163,0.0011444091796875,-0.957855224609375,0.40435791015625,-0.30031508874831103,-0.12545246420592698,-0.0819521246444634,0.0882308959960938,-0.86552734375,0.5254531860351561,-0.04036795611892293,-0.011117605655033896,0.009957665842249917,0.06251370882730228,0.08058057230215487,0.05911108903685796,0.10524489369298352,0.07366896388695494,0.06307506947583252,False
29,11.126000022888192,1.8887692188446787,0.118667602539062,-0.8414764404296879,0.482681274414062,0.0978850184980804,0.0187361372170345,0.0869255779801863,-0.0249481201171875,-0.9774932861328121,0.283294677734375,-0.100793989356774,-0.180395075390915,-0.0233505964378148,0.0640747070312499,-0.9240112304687498,0.3911666870117187,-0.010533334743481395,-0.06566396510142974,0.03332749030313499,0.048100122634931054,0.04621927255511767,0.05708743455351344,0.06457922548207128,0.05989593919185648,0.038538227549993566,False
30,14.14999980926513,0.3230065162929061,0.121368408203125,-0.8764801025390621,0.27056884765625,0.031862059281707995,0.0544741611492438,0.0671574658407462,-0.0379638671875,-1.01492309570312,0.068267822265625,-0.062445534924069,-0.08607336643136099,-0.0612835977404674,0.03978729248046875,-0.9543640136718743,0.180499267578125,-0.01949788118362982,-0.01848726481316656,0.006138746102298048,0.0486143605347986,0.03531638866719815,0.06028967830567052,0.027141116012378067,0.04338321052659608,0.03627440945939024,False
31,13.288000106811541,0.8938905936821363,0.13945007324218803,-0.935455322265625,0.121871948242188,0.035493013111922,0.10785829046431801,0.0255327906350257,-0.0990142822265625,-1.033935546875,0.011138916015625,-0.0713556729831471,-0.0327398371769981,-0.0429133788572098,0.04199981689453125,-0.9868972778320314,0.0631591796875001,-0.01954920029783566,0.01831658281890336,-0.0011003915308098369,0.07484503981307454,0.03171939536558072,0.036432869567814184,0.037134270503915816,0.04329971812443777,0.02381573254454975,False
32,10.476999855041504,0.8163882015548969,0.132293701171875,-0.7706451416015621,0.22486877441406197,0.20132698892672,0.141190680983859,0.0917616122036612,-0.14234924316406197,-1.03150939941406,-0.026580810546875,-0.0443022173656861,-0.20180369476184398,-0.237135053995599,0.012615966796875053,-0.9757232666015625,0.0757156372070312,0.018286489098585466,-0.06521767256595423,0.005473355303941706,0.08732341592265541,0.07753929053539177,0.06809707775233233,0.0790459401705284,0.09492504859437323,0.09108187986722802,False
33,7.7010001659393295,1.0276668711511758,0.20692443847656197,-0.894073486328125,0.356399536132812,0.0176943085985955,0.11173638564369198,0.16924628411951698,-0.20989990234375,-1.05036926269531,-0.1219482421875,-0.0519862360588918,-0.25746908786668105,-0.0979960723155367,0.077899169921875,-0.9622726440429685,0.1954833984375,-0.004610970479752294,-0.005288691713955665,-0.0005666674167470225,0.12687232975950324,0.043427453262125514,0.13936889170629055,0.020422359448929034,0.10063234198660477,0.07013304868530332,False
34,7.435999870300293,0.7298125382659956,0.12933349609375,-0.899566650390625,0.365753173828125,-0.0101333279477515,0.0723990994982401,0.0790897591048462,-0.121185302734375,-1.02548217773438,0.03302001953125,-0.0959443730117397,-0.18913983114629998,-0.0502586434597574,0.01026611328124995,-0.9686782836914072,0.15086975097656247,-0.0366709292620641,-0.033478864379495106,0.015490915639107507,0.081437746942233,0.0489490690971157,0.12689119038669025,0.029415662415520915,0.08005253344001179,0.04489815257718048,False
35,6.373000097274779,0.7250447749814124,0.112533569335938,-0.93182373046875,0.313674926757812,0.0032834113079586898,0.0372927773765976,0.00432523992639769,0.0169525146484375,-1.00497436523438,0.0330352783203125,-0.049945189399455005,-0.0307973274778943,-0.0283080708069973,0.07828521728515629,-0.965847778320313,0.17437896728515617,-0.0176618446649074,-0.00020567593098680116,-0.009029873781688073,0.032903639907305576,0.02632214855690763,0.07741263225365401,0.02065089874290741,0.024478884039734458,0.011864266675685046,False
36,6.277999925613404,0.5439116409386981,0.0990447998046875,-0.9069671630859379,0.415817260742188,0.0532293996557408,0.0460481857763421,0.0552523368197649,0.0091400146484375,-1.01860046386719,0.17572021484375,-0.0475107938470136,-0.0748004718531646,-0.0175374484103898,0.05222015380859375,-0.9545898437500003,0.3094863891601562,-0.004098471759577437,-0.018479328593118106,0.01695853045262838,0.03297020211073981,0.03567652014475847,0.07893358037988486,0.03754957620419737,0.043015456332669864,0.025844912214616014,False
37,8.73199987411499,1.3194088907591968,0.20796203613281197,-0.8883514404296879,0.455108642578125,0.12897715790864697,0.0594311028862083,0.0629720418715776,-0.116043090820312,-1.05458068847656,0.24159240722656197,-0.0722752625075514,-0.14195074715896802,0.00452124858262752,0.02961120605468744,-0.9343856811523434,0.3661560058593751,0.0045905440341914225,-0.0323624139873122,0.02806532367363654,0.10206541289104526,0.049674992128516955,0.0585459917197153,0.05906835629686102,0.06869646773578199,0.018035105112113283,False
38,11.43399963378905,0.35109976819651295,0.113113403320312,-0.9294281005859379,0.24223327636718803,0.0363460236090744,0.0821257627475365,0.0235111850515465,-0.0317535400390625,-1.02751159667969,0.0254364013671875,-0.0660794182314821,-0.0793595373232712,-0.0762777273098315,0.03238220214843745,-0.9671142578125004,0.16529235839843762,-0.015001346735918247,-0.00937174377082155,-0.013883564763190179,0.050091168241906445,0.028428553947231903,0.06379263112058892,0.035390270937155424,0.05516721116402332,0.03133090416377453,False
39,10.724999904632543,0.7490176005959268,0.0800933837890625,-0.9468994140625,0.101119995117188,0.0234334207477162,0.0447869126840806,0.0247586097061397,0.003692626953125,-1.02302551269531,0.001190185546875,-0.0602383070126113,-0.03495398930729,-0.0194866160122188,0.04246826171875,-0.9841018676757812,0.0467025756835938,-0.01689647879922953,-0.0002096440410110402,-0.002731364645596164,0.02969537973400501,0.024924308516620634,0.030633213140814103,0.026024397966490108,0.02902285717205287,0.01430981594086035,False
40,8.448000288009641,1.0888098869024116,0.058349609375,-0.996002197265625,0.048187255859375,0.0188788826514627,0.0417200163727453,0.0145816059165109,-0.015960693359375,-1.04144287109375,-0.05902099609375,-0.0671606616340543,-0.0326998897606469,-0.0548882826987511,0.0290283203125,-1.0135299682617194,-0.0144989013671875,-0.02422728243705797,-0.006438644672651868,-0.007375065375145526,0.026531811514150575,0.013419638321939034,0.03349784544358051,0.023715335817019668,0.02600396005646853,0.019614277303786405,False
41,4.536000025272365,1.4999867241187177,0.0634765625,-0.9884185791015621,0.0176239013671875,-0.00566188047750846,0.0320242457920938,0.0234041259757254,-0.000396728515625,-1.02508544921875,-0.0338287353515625,-0.0367929020399897,-0.0402392988066613,-0.0249468951952083,0.03243255615234375,-1.0067687988281238,-0.0119537353515625,-0.021938348743356633,0.00801369140454653,-0.0033373136884218974,0.02441834226819374,0.011582963651136428,0.015334431311243516,0.008544749190435257,0.022503069385604507,0.016077326685702786,False
42,0.9389999985694889,0.6959956696113438,0.04736328125,-0.9550323486328121,0.21311950683593803,-0.000123836990688685,0.0054546865447003,0.007469367909345241,0.026275634765625,-1.00071716308594,0.0743408203125,-0.0212866465930034,-0.0201801031600754,-0.00876020208970665,0.03914794921875,-0.9811004638671876,0.1343551635742187,-0.012911218017591364,-0.004809242822908692,-0.0007595069112796975,0.0070237119321916765,0.014807286986293494,0.05538637928894902,0.007385289771303164,0.008320078252980104,0.004343465859633977,False
43,0.075000002980232,0.07905694464564984,0.0547027587890625,-0.95404052734375,0.19032287597656197,-0.012838034350836,0.00439155263754066,0.0030474552353776697,0.0361328125,-0.9811859130859379,0.12847900390625,-0.0212347149517468,-0.00946141240472451,-0.006625412159899129,0.04454803466796875,-0.971209716796875,0.15561065673828117,-0.01683967357317813,-0.0035072499975798525,-0.0009097091967601673,0.004958651269091248,0.008601271704396124,0.024896788808627595,0.0028634720425998487,0.004213084514869816,0.003050274104494461,False
44,0.0,0.0,0.050018310546875,-0.96533203125,0.17317199707031197,-0.0128473554146513,-0.00202400242846022,0.00202506769289625,0.041900634765625,-0.973358154296875,0.16371154785156197,-0.0170903036633655,-0.00948937559617034,-0.00334040295528639,0.04567413330078125,-0.9696380615234375,0.1684539794921872,-0.01505213321790606,-0.005539854436361029,-0.0003530552657118053,0.002834386412624322,0.0027684207699229016,0.002911145200819942,0.0015209749989603663,0.002613924320737904,0.001663405390562166,False
45,0.277999997138978,0.5860754536529756,0.113113403320312,-0.90484619140625,0.36785888671875,-0.00195902129786229,0.117148461610951,0.00315691115617993,0.0386505126953125,-0.969940185546875,0.16996765136718803,-0.022149777102297995,-0.009482717693445141,-0.0293168762279193,0.07289428710937496,-0.9422622680664062,0.29313812255859395,-0.012230673832632499,0.030394284678521778,-0.007880400191988077,0.02561035285548063,0.021739350342888097,0.07425544221123381,0.0059605184304686665,0.04316264351119191,0.009409125517195974,False
46,2.653999948501588,1.1848975326653313,0.385101318359375,-0.8465423583984379,0.381912231445312,0.125155788060492,0.39844911280831397,0.0689942480445738,-0.0550689697265625,-1.1432800292968799,0.23089599609375,-0.0623395411126838,0.144883686467472,-0.139407162001833,0.17976989746093763,-1.003141784667969,0.2937561035156249,0.028183594657646978,0.28211792207268716,-0.06078721114488757,0.12274677846347375,0.10266617723384996,0.04375879903138813,0.059750454893040726,0.0726281591119518,0.05839680138206032,False
47,5.163999938964844,0.8243947710814513,0.451873779296875,-0.825286865234375,0.4136962890625,-0.0131288515418726,0.563128608290563,0.0009731190623149539,0.021881103515625,-0.990753173828125,0.15043640136718803,-0.22509250586236898,0.30458759808512603,-0.23203936156584098,0.2731643676757813,-0.9030227661132812,0.27038726806640634,-0.08843625610853381,0.4094491665328322,-0.12255089693506342,0.13117815396557334,0.05042933535110231,0.09822229803023833,0.06193084883845944,0.08633182479720197,0.0763645688434037,False
48,6.900000000000001,0.52153612577438,0.15965270996093803,-0.6726226806640621,0.610992431640625,0.0408041552738671,0.38679298934925505,0.11899456487859401,-0.136871337890625,-1.16673278808594,0.0933837890625,-0.207961189518217,-0.248602093017262,-0.23356189076103895,-0.03599853515624995,-0.9117095947265629,0.27052459716796884,-0.04030404025276111,0.06737810873705916,-0.029480926951068086,0.09574987519585058,0.14778940261591192,0.14548924052540058,0.08300379767354647,0.18119137969606033,0.10708751534952969,False
49,8.18599991798401,0.2376364416990821,0.23783874511718803,-0.81951904296875,0.485519409179688,0.17073073011112697,0.25992638660449696,0.08015821933418599,-0.0740814208984375,-1.08734130859375,0.07025146484375,-0.22377717059997898,-0.134078709292802,-0.0823409461636149,0.09964904785156259,-0.976097106933594,0.18521728515625008,-0.04278528080877693,0.021656932510968056,-0.01328850804922288,0.0939912999812433,0.0788287717485031,0.12016923465143355,0.13416040834388787,0.10736829037136986,0.05480069857224693,False
50,6.849999952316286,1.0927538410089142,0.371368408203125,-0.7599639892578121,0.0574951171875,0.0955992273344654,0.00470021300788085,0.357358135085046,-0.228759765625,-1.110595703125,-0.14585876464843803,-0.23275681716350802,-0.515404495240234,-0.0984895560655284,0.04183959960937505,-0.9944137573242188,-0.0485198974609375,-0.00913261853654328,-0.10534847418980575,0.04154747016571913,0.16575983887063134,0.09725276761450494,0.07746252935989012,0.09310315635982597,0.15603753136805534,0.12726627091534967,True
51,2.641000032424929,1.635375955748313,0.06317138671875,-0.92938232421875,0.265167236328125,0.00545681707357236,0.00322349018343191,0.0392912134585931,0.022735595703125,-1.05226135253906,-0.1549072265625,-0.0275197751243338,-0.0476820351051057,-0.0140716105677607,0.0446624755859375,-0.993046569824217,0.07119445800781256,-0.013858744101830656,-0.010333784083001764,0.00319004088014052,0.013538166581110221,0.04150714989372333,0.15927608940898283,0.009846906904376585,0.016897376600879824,0.01640937743356252,False
52,0.0,0.0,0.0627593994140625,-0.9577789306640621,0.20854187011718803,-0.0138348555468526,-0.0009739180106419769,0.0009182579438593211,0.05694580078125,-0.9642486572265621,0.1964111328125,-0.0170676667940998,-0.0062778696376437895,-0.00120561302547887,0.05952911376953125,-0.9620346069335938,0.20157165527343773,-0.015147154805600097,-0.004794701963356858,-0.0007824367282652792,0.001836895281402571,0.0017962712330880292,0.0033580801190757023,0.0008508507355216848,0.0014336267859422112,0.0007409745346646219,False
53,0.0,0.0,0.0601806640625,-0.9610137939453121,0.20379638671875,-0.0138734713826588,-0.002016545577408,-0.000128630680650827,0.056915283203125,-0.9647979736328121,0.19752502441406197,-0.0181323985979135,-0.00841958378628551,-0.0012138688248581199,0.058990478515625,-0.9626571655273437,0.20109405517578122,-0.015366892227142517,-0.0051123371865706094,-0.00046400255672450583,0.0010984679675349759,0.0011130679727495872,0.0019448083399161945,0.0014324297872257232,0.0017014357893525521,0.0005089505782724666,False
54,0.0,0.0,0.06060791015625,-0.9611053466796879,0.203521728515625,-0.0106712864879475,-0.00204450876885383,0.0009291769043286461,0.0568389892578125,-0.9674835205078121,0.198272705078125,-0.0191758251130065,-0.00843343222395392,-0.00231535225171489,0.05874176025390625,-0.9641311645507814,0.2016464233398437,-0.01493793687036345,-0.004902400197839661,-0.0005667739431906642,0.0012104461811453808,0.0021547399662558055,0.0018891266894645665,0.0026054662774763,0.001879558134188368,0.0010352213794712895,False
55,0.0,0.0,0.060272216796875,-0.959197998046875,0.20794677734375,-0.011797270996833002,-0.00308740265172886,0.00203066033118542,0.056793212890625,-0.96441650390625,0.19944763183593803,-0.0170610088913746,-0.00736896673624925,-0.00122745094641752,0.0588348388671875,-0.9624343872070312,0.2028564453125,-0.014838920541034311,-0.0051157194011550115,-0.0001387240611822271,0.001147441097295416,0.0014837501909103295,0.002454786721214072,0.0013543962750917386,0.001373281807446958,0.0012415007630787371,False
56,0.0,0.0,0.06036376953125,-0.9599761962890621,0.20399475097656197,-0.0117599867415719,-0.0030866037034018396,0.00201441504853594,0.0568389892578125,-0.964935302734375,0.1968994140625,-0.0171142721131762,-0.00839827849756488,-0.00122745094641752,0.05841827392578125,-0.962652587890625,0.2002349853515625,-0.014632765241051272,-0.005436124311902444,0.00018407769454627693,0.0010303731993575773,0.0017689259391811343,0.002201525949566183,0.001741667149167103,0.0014000681368788587,0.001237487228815823,False
57,0.0,0.0,0.063018798828125,-0.9590606689453121,0.2086181640625,-0.0106499811992269,9.69390636788843e-05,0.00303946575210743,0.0545501708984375,-0.966796875,0.19499206542968803,-0.018148377564454,-0.011596468650641002,-0.00223066372905037,0.059130859375,-0.9633697509765625,0.2017623901367188,-0.01452056626432623,-0.005649683199715894,-0.00034732946936813535,0.0026375282677546306,0.0024689519151776308,0.0048479160407776025,0.0025378110491503705,0.0029276639446741246,0.001389363388788356,False
58,0.0379999995231628,0.08011103305233785,0.08221435546875,-0.901275634765625,0.415267944335938,0.0308599117635112,-0.00203066033118542,0.0030312099527281897,0.0552978515625,-0.9649658203125,0.199493408203125,-0.0244542103935436,-0.019124692420077,-0.00450740014495911,0.06427459716796875,-0.9494613647460938,0.26735229492187507,-0.011129003984499428,-0.00716089396028136,1.1158644967432327e-05,0.008753170649275055,0.023138017549319517,0.09690238898091653,0.015713346716333614,0.004962795039277782,0.0021110110872140176,False
59,1.7059999763965585,1.2371580384592664,0.15861511230468803,-0.8320770263671879,0.472259521484375,0.0335739392304109,0.096359027193465,0.166503228196735,-0.07843017578125,-0.980560302734375,0.25311279296875,-0.0961129511087417,-0.24858638036682998,-0.0627680437320776,0.07424468994140625,-0.9096206665039063,0.38039398193359386,-0.035665585950559166,0.0002319080677241375,-0.0005789978525941323,0.06511377027330899,0.04247948123495361,0.0661724802102692,0.03421184808223341,0.10330117029909133,0.06363960465321132,False
60,4.930000114440917,0.6649310328159643,0.221099853515625,-0.85980224609375,0.34478759765625,0.0289629421190477,0.112963570274,0.0430361505834625,-0.0227508544921875,-1.01390075683594,0.240631103515625,-0.141392548594487,-0.0637851049523788,-0.131720213831428,0.09145660400390629,-0.9348190307617188,0.3010330200195312,-0.04636209257402975,0.024126455158187555,-0.015144065538735579,0.0666403726238132,0.057703896762005984,0.03788022735581814,0.04767372898128847,0.05218628382147161,0.04854169508734347,False
61,7.292999982833862,0.7845177097222307,0.0614471435546875,-0.778900146484375,0.360443115234375,0.143474341618602,0.0385479251983519,0.0521854405084297,-0.1912841796875,-1.10102844238281,0.14628601074218803,-0.238325487002864,-0.111932926932139,-0.0423120370830699,-0.00805511474609375,-0.9214370727539059,0.3050003051757812,-0.06505383489569257,-0.02606462390471449,-0.007422549537381648,0.07196632056082482,0.09547030368794243,0.06696683577674051,0.10785053248748504,0.04979557498431649,0.03102298058636665,False
62,8.843000221252442,0.2764877875975264,0.103225708007812,-0.8495635986328121,0.350601196289062,0.151899518043177,0.128985946340244,0.45319784586594497,-0.188262939453125,-1.1330261230468799,0.089508056640625,-0.149545283639547,-0.487025584348241,-0.12473740545324001,-0.0283004760742188,-0.9819793701171887,0.22507019042968732,-0.017245166480753648,-0.017438298923006162,0.0055193747275783965,0.07344397653054728,0.07887423289872508,0.0746477108336741,0.08905561427618834,0.17538327805444515,0.16585038503847782,False
63,9.77300024032593,0.4266158802185535,0.7452545166015621,-0.715789794921875,0.429443359375,0.15420661449551198,0.987629561830359,0.314068717881917,-0.8782958984375,-1.13006591796875,0.0956878662109375,-0.30614821048391194,-0.44771466349758093,-0.6776288225135388,-0.035525512695312546,-0.9447250366210943,0.26925048828125003,-0.05547297971607799,0.1646836233819384,-0.13586901933560813,0.39955134383711133,0.12080899041896437,0.10632443617763349,0.1373731822679435,0.38497519414790615,0.2918284908309283,True
64,11.10200023651126,0.31428210238855353,0.303558349609375,-0.717193603515625,0.425872802734375,0.197484313789845,0.134840373364565,0.10779224406928399,-0.0904083251953125,-1.28334045410156,0.0384674072265625,-0.25017389069262697,-0.190985135465615,-0.193443233151759,0.07747650146484376,-0.9562210083007805,0.2521316528320313,-0.022407730885483146,-0.011764673905090377,0.020059009225309468,0.1282543244972854,0.16143706692627108,0.12220783477864053,0.13767420207246725,0.10347080241761095,0.09805439856960507,False
65,11.721000289917018,0.18905902353117973,0.72607421875,-0.623916625976562,0.385894775390625,0.456806961775221,0.677351321127952,0.47021145048991597,-0.265121459960938,-1.3876647949218797,-0.017425537109375,-0.43456983298916796,-0.743992400033332,-0.36337048756200896,0.17214965820312494,-1.0510131835937513,0.18364868164062495,0.003596385999264956,-0.08447733399007659,0.03330746333173767,0.3339915902211676,0.24420777497298743,0.13042728992467426,0.27906908763506777,0.35639163865143614,0.22180898946694377,False
66,12.095000076293923,0.09442798645652634,0.277633666992188,-0.470993041992188,0.385498046875,0.18721702883926197,0.14541152499552498,0.0712001443754865,-0.17045593261718803,-1.60560607910156,-0.17132568359375,-0.305257116783171,-0.284366482244263,-0.0849516429802196,0.06810913085937505,-1.0078292846679686,0.18076324462890633,-0.0057304302439670635,-0.02836548856009944,-0.009154909194867288,0.14765070959351445,0.30661872804907153,0.18853813570741046,0.16379875971266608,0.1332253273161116,0.05597297915113468,False
67,12.222999954223638,0.08246894061707835,0.0708160400390625,-0.8040313720703121,0.2740478515625,0.17770847848324303,0.122550683882176,0.0795310448974723,-0.127288818359375,-1.2596435546875,0.1173095703125,-0.0498224176732024,-0.136885414765637,-0.10944873026731301,-0.0238189697265625,-1.0012710571289065,0.1951583862304688,0.043732513945296383,-0.01570934811171585,-0.005908995195056883,0.06337768809528026,0.12882609236260187,0.05597499929619636,0.07399014453263597,0.08492018919401537,0.06469575558979782,False
68,11.832999992370642,0.1880926945106885,0.22807312011718803,-0.84173583984375,0.381729125976562,0.270677567925147,0.19775196147939803,0.0901157786499922,-0.198944091796875,-1.10111999511719,0.0914459228515625,-0.0954242576508472,-0.169875855401211,-0.0518200548068708,-0.0005310058593748946,-0.9808013916015625,0.19862060546875,0.040245850182942945,-0.014192677870915585,0.02390538615610007,0.1245800327066605,0.0808473923691717,0.08693124176291323,0.10918677812999732,0.13599683671273938,0.046448359922710264,False
69,10.75600013732912,0.6159581087629948,0.20390319824218803,-0.9042816162109379,0.22462463378906197,0.14881531118475597,0.12373845372835199,0.0637334396272313,-0.141510009765625,-1.12760925292969,-0.0096893310546875,-0.154360811522628,-0.21711953419089,-0.0840514945317728,0.017105102539062604,-1.0119506835937502,0.0792205810546875,-0.009612173954033864,-0.046209227127459125,0.0001274588897711818,0.1016552557076084,0.06792832583185815,0.0706512105584483,0.1033298118572886,0.09579064071945619,0.047589350440452205,False
70,8.111999797821046,1.4823763313711178,0.113479614257812,-0.843902587890625,0.063446044921875,0.15552700976397302,0.197567670731964,0.0978067215620321,-0.034912109375,-1.11735534667969,-0.1947021484375,-0.21967989726289203,-0.0988581375603954,-0.0580473243838031,0.0453247070312499,-0.9981491088867198,-0.03825531005859375,-0.04984113969566558,0.045000631361559386,0.0013993846263930473,0.04526042247577552,0.08278193128609743,0.07705736634761784,0.10031220409324583,0.1099829353561468,0.05054710898851002,False
71,4.016999971866609,1.472398193069261,0.046051025390625,-0.9802703857421879,0.110794067382812,0.0334162800938783,0.018215755540033,0.0222315361477635,0.016815185546875,-1.0291748046875,-0.002227783203125,-0.0351574548145721,-0.0523364417422372,-0.00750425531962528,0.03090667724609375,-1.0001739501953129,0.05499267578125,-0.006123885663415403,-0.009745358640148753,0.006359735209552829,0.00888898134248162,0.016225000777107326,0.03903004901078561,0.021642541470570497,0.018759244558581887,0.009704736757053635,False
72,0.9589999735355381,0.6294697865476337,0.054718017578125,-0.954620361328125,0.23222351074218803,-0.0065268751995662,0.007562578547498009,0.004225371385519721,0.0345306396484375,-0.989715576171875,0.125228881835938,-0.0255948422884245,-0.0105940548163352,-0.00438436210259745,0.0457733154296875,-0.9761199951171873,0.16363830566406262,-0.015143692696182978,-0.003943715468632943,-0.000571354580265598,0.0055026774972487735,0.011524446177473033,0.03954002302079662,0.004923545406039486,0.005648522187719513,0.002600374100261251,False
73,0.0,0.0,0.05291748046875,-0.9557037353515621,0.199005126953125,-0.0128100711593901,-0.00200269713973959,0.00306662999522624,0.0426025390625,-0.969085693359375,0.18763732910156197,-0.0191811514351867,-0.00841159430301527,-0.00232334173498513,0.04665374755859375,-0.9638595581054685,0.1938293457031249,-0.01600493236110369,-0.00500181600133232,-0.00047082024911510956,0.003093746397897227,0.0035820528675926796,0.003578306592380371,0.001929392812700113,0.002002344173880784,0.0015992296978645296,False
74,0.0,0.0,0.05072021484375,-0.95501708984375,0.252151489257812,-0.0127874342901245,-0.00308713633561985,0.000948351664177217,0.04498291015625,-0.9682159423828121,0.1890869140625,-0.0202405569168202,-0.0062781359537528,-0.0023262712121842103,0.0473724365234375,-0.9638427734374998,0.20084991455078138,-0.01578879020703286,-0.004577734229348103,-0.0004697017214572743,0.0019182185381359169,0.003885946223653944,0.018274710802640398,0.0022844589947404,0.001249387866678936,0.0013400310755767295,False
75,0.14900000393390628,0.22062789471365957,0.0543212890625,-0.94256591796875,0.2635498046875,-0.008520517591599509,7.48348266312266e-05,0.00633246443999041,0.03521728515625,-0.9611663818359379,0.22576904296875,-0.0203484149409684,-0.0180114910844239,-0.00545042548695617,0.04619140625,-0.9533706665039062,0.2442459106445313,-0.013256203905200232,-0.008210898483266905,-0.0007542604839322422,0.006745293020519204,0.005131701384882729,0.009992811141661203,0.0035348635397922097,0.006131330691088904,0.0038445285181556324,False
76,0.9250000000000013,0.1739252661306442,0.076385498046875,-0.9344024658203121,0.23188781738281197,0.00114063189488094,8.09600971384088e-05,0.00736337409796009,0.0424346923828125,-0.975341796875,0.21290588378906197,-0.0214224678085974,-0.0168801802533582,-0.0151272876238681,0.05851287841796875,-0.9546295166015625,0.223652648925781,-0.008515590743582876,-0.0068594241248843835,-0.004014475658796346,0.010905066650844989,0.011138644744960763,0.006923665331881809,0.00833752852939518,0.005068982303687352,0.006526329600674746,False
77,1.3609999895095801,0.1289659591991959,0.113555908203125,-0.930633544921875,0.26263427734375,-0.000334226716804944,0.0405636718274329,0.0169877719613974,0.03857421875,-0.96820068359375,0.1976318359375,-0.0409239975229206,-0.0191425355993806,-0.0323233187825097,0.07928009033203125,-0.9508636474609375,0.24102783203125,-0.01990870041338543,-8.455536461001523e-05,-0.00820021920729567,0.02494736888401249,0.014250259997387708,0.01919019334749687,0.01202158925738215,0.02254069798978302,0.015853110504189142,False
78,1.9829999685287483,0.41580043047665183,0.298614501953125,-0.891265869140625,0.322006225585938,0.0208797155784392,0.301264771993034,0.00347542522255341,0.108871459960938,-0.9747467041015621,0.23377990722656197,-0.0529471045801924,0.0287405681680261,-0.0797712620277975,0.16697387695312502,-0.9321853637695312,0.27915649414062516,-0.01842718389897438,0.15541779352766924,-0.03140332978394186,0.05981562771152088,0.025576058076732487,0.03194232122116334,0.022943965716408166,0.0962086811456961,0.027988577032311994,False
79,3.4460000514984124,0.3822507156155864,0.415191650390625,-0.8746490478515621,0.332168579101562,0.0680680006174443,0.469678818271901,-0.0053138053230351,-0.0657958984375,-1.16697692871094,0.156646728515625,-0.14300242947344,0.213923740882795,-0.229580198615262,0.19021759033203126,-0.9523757934570314,0.24788513183593758,-0.040885541476779905,0.3194747751051123,-0.08248856518283806,0.13662867955807348,0.08363721911958116,0.055581587673149156,0.055908607316420285,0.07601234508065391,0.06369922574613293,False
80,4.496000003814696,0.3535595695235721,0.306228637695312,-0.8489990234375,0.328292846679688,0.0628482048808889,0.34743253370232,0.115174792927093,-0.135299682617188,-1.04901123046875,0.070770263671875,-0.112648784633153,0.126480178070588,-0.17585971205451,0.13572387695312485,-0.948960876464844,0.2247100830078128,-0.012748072769213132,0.2112255858559921,-0.03458122664951157,0.12505188579529167,0.05822194046075459,0.06824818499570505,0.053559469748526024,0.08006605281754489,0.09273536173578338,False
81,5.3119999885559075,0.4323269660773302,0.203704833984375,-0.896331787109375,0.334762573242188,0.0418409238862349,0.20634944442650102,0.043424972102614,-0.081817626953125,-0.988189697265625,0.17332458496093803,-0.0573916541234256,-0.0914047486175906,-0.17435049866476302,0.03775634765625,-0.943841552734375,0.24381866455078147,-0.009060739818722094,-0.005047249529529038,-0.00210554842103849,0.08843168043551856,0.02694070870981205,0.04778182395845947,0.030828847596913518,0.08439927569174065,0.06385668795442442,False
82,6.4059998989105225,0.49748695213295097,0.139739990234375,-0.83123779296875,0.4033203125,0.0433802309963007,0.0738627728333477,0.0900550585771384,-0.17082214355468803,-0.9959716796875,0.212127685546875,-0.114699418672514,-0.0994344456202885,-0.0316623221999521,0.03417510986328119,-0.9163787841796875,0.2926849365234376,-0.03607944118395752,-0.024441001114536814,0.016113376280691708,0.0857475703560916,0.04655575643242853,0.06350865987148609,0.06354991761134059,0.06676409826117709,0.04519621838745377,False
83,8.04000005722046,0.2633123948026798,0.131698608398438,-0.87127685546875,0.432083129882812,0.0955076145929667,0.13040088382740303,0.13109836571689498,-0.21232604980468803,-1.08749389648438,0.105560302734375,-0.0957113464163577,-0.132697061319269,-0.11376305123324199,-0.006060791015625103,-0.9739440917968754,0.2299819946289062,-0.0001919872829838104,-0.022121307910245018,0.017434410707814686,0.10335461592504544,0.07444509602810412,0.0888666272436839,0.07439737444946842,0.08514877609716455,0.0727163724940195,False
84,8.466999816894532,0.36974622160145215,0.550064086914062,0.128890991210938,1.1977233886718799,0.67741923173575,0.261237460809143,0.529255329753627,-0.564178466796875,-1.42301940917969,0.0882415771484375,-0.783187739692683,-0.457418157245394,-0.44762624654939004,0.0421829223632811,-0.8941497802734378,0.3838165283203129,0.050234382062226815,-0.07638774249446276,-0.031594837697929486,0.38663009323098213,0.47004034470415496,0.3087975116513212,0.41441127675219297,0.2169684655151604,0.27096251692132534,True
85,9.996999835968017,0.6639953668897978,0.527740478515625,-0.8044586181640621,0.465225219726562,0.16374232909465,0.347689795063622,0.186403699442352,-0.18888854980468803,-1.15533447265625,0.201751708984375,-0.33460648357639,-0.30803852222565004,-0.16285443118721699,0.026016235351562444,-0.9802429199218757,0.3258117675781249,-0.06641148778780408,-0.024673148866758983,-0.008612876018203484,0.23430114957920348,0.12200893762297559,0.0939528117620057,0.16391325727581396,0.20265110788647767,0.11832540870280699,False
86,11.85999994277954,0.3286334532488258,0.271392822265625,-0.854095458984375,0.422897338867188,0.137905938095355,0.18535547923729698,0.144662377780886,-0.099609375,-1.08355712890625,0.0968170166015625,-0.15809482968702804,-0.19363098600860898,-0.0899621142550947,0.04897308349609375,-0.9870010375976559,0.20200958251953116,-0.02532921860129999,-0.0019617909853960084,0.00550328923459423,0.0959177384982984,0.06800790815601054,0.10039493704961393,0.09649243038351715,0.11400183037993207,0.08171123629211328,False
87,11.25200014114383,0.4902788384205093,0.466323852539062,-0.7689971923828121,0.435989379882812,0.44131615266255697,0.48067074935509396,0.283840774245081,-0.0836334228515625,-1.17950439453125,-0.0976104736328125,-0.33207568159248696,-0.102082959324372,-0.26224919570726396,0.0750381469726563,-0.9905868530273437,0.1696746826171875,-0.02331403123604788,0.07822292680163634,-0.035519005564161224,0.1813540024654961,0.12690178135517677,0.14880419421515187,0.2131949802372276,0.17626947449858932,0.14634842105854873,True
88,10.547999954223659,0.15404177355993373,0.16444396972656197,-0.472686767578125,0.7228546142578121,0.18049494393179302,0.0956397073830346,0.252261808987249,-0.282638549804688,-1.1017150878906201,0.09271240234375,-0.311966152201299,-0.6021292708742281,-0.0486863131521746,-0.042547607421875105,-0.908363342285156,0.24449157714843733,0.00521372372926991,-0.1477662387681517,0.11366664480178099,0.15463797912372912,0.17229541791760286,0.18858612949113396,0.13676341089615776,0.2106983109847161,0.10407922959292355,False
89,10.50799961090088,0.5761713654070443,0.396926879882812,-0.7638397216796879,0.466217041015625,0.35822739086484795,0.5614351041533822,0.38407336924406604,-0.7390899658203121,-1.37583923339844,-0.276809692382812,-0.264777334530076,-0.392823185005522,-0.29754753174350107,-0.08395690917968741,-0.9997390747070318,0.2028152465820312,0.043860265782787546,-0.054429446674541235,-0.005274656855010967,0.3261499812214096,0.22137690869662122,0.22354527007155875,0.1869681104601678,0.27743330268043603,0.1951522165612148,True
90,11.893000030517573,0.3202793055822988,0.329727172851562,-0.053009033203125,0.399017333984375,0.228815871382409,0.389628989594081,0.5772199262503901,-0.781097412109375,-1.52381896972656,-0.275741577148438,-0.359679878923377,-0.754935595268577,-0.050548661702466996,-0.15468597412109386,-0.8139923095703118,0.05828247070312496,-0.03203045095743383,-0.3315326364146093,0.20534735017152564,0.36482051405138194,0.42479366741282915,0.20260651977491537,0.18337147226820016,0.37178903859233553,0.19651120556347892,True
91,8.773000121116624,2.28923113636774,0.683868408203125,-0.751861572265625,-0.0027618408203125,0.0456878600808544,0.32128082442996003,0.214449182565868,-0.11431884765625,-1.09176635742188,-0.487548828125,-0.337082424441836,-0.41309596617153205,-0.198078465029042,0.1782333374023438,-0.9518295288085948,-0.16789703369140624,-0.10417561804573472,-0.020382982771917708,0.006236271061416757,0.23179794204443485,0.12863174272545821,0.15095879399777734,0.13050942566076348,0.23937224802226365,0.12548141118853715,False
92,1.7510000348091104,1.84477917949285,0.0745086669921875,-0.9444427490234379,0.269607543945312,-0.00850587020560408,0.0246667306485319,0.00305810787973799,0.02978515625,-1.01312255859375,-0.01214599609375,-0.0314652482792862,-0.0137160785622351,-0.021710089206326,0.064239501953125,-0.97022705078125,0.17722167968749988,-0.01623673390238419,-0.0007460845793857087,-0.0045357894421793575,0.013911151593634033,0.02263198879006973,0.08967853618942191,0.006602722643470341,0.012741694100700819,0.0093986201848551,False
93,0.31499999165534975,0.30372684292373503,0.09552001953125,-0.9264678955078121,0.300201416015625,0.00216275312125335,0.0171222615964464,0.0114116452709895,0.05615234375,-0.9607086181640621,0.24763488769531197,-0.0354330919873953,-0.0178509024706921,-0.00873543469156891,0.0764068603515625,-0.9442459106445312,0.27258300781249983,-0.01480243523410025,0.0005218197839901224,0.00027358653878383594,0.010910927381017184,0.010521757102806787,0.019714039215081382,0.009584225117613933,0.010497211417587627,0.006265452557454639,False
94,1.2659999728202849,0.38370125459389937,0.111968994140625,-0.910919189453125,0.371871948242188,0.057507501630844,0.032163262800996004,0.0350064535807646,0.027587890625,-0.9682769775390621,0.239105224609375,-0.0534696167860659,-0.0307091768458127,-0.0189105742684347,0.07172241210937505,-0.9377655029296875,0.3010269165039063,-0.011004554466760014,-0.0006726612281322082,0.0022347383655181865,0.030245828344340194,0.018207018885535182,0.04040963753434493,0.0322460510249709,0.022317631614827596,0.016941114360498048,False
95,2.9809998989105244,0.8433853741472258,0.15669250488281197,-0.88653564453125,0.503280639648438,0.0779291535017897,0.15773556925597598,0.0319344972633582,0.0107574462890625,-1.05682373046875,0.300018310546875,-0.0596715863326424,-0.0594327007828623,-0.0787408850020458,0.0804473876953125,-0.9376647949218748,0.38171691894531257,-0.009164523206402476,0.01697056794075553,-0.013571921652429108,0.05294330235307659,0.048088687916544345,0.06995448933026592,0.046299228637843456,0.05900706237243628,0.03139754495252467,False
96,5.499999952316284,0.6664833331112103,0.166229248046875,-0.905517578125,0.442779541015625,0.0440196559740287,0.18013488455241503,0.0229764223046586,-0.0174407958984375,-0.98748779296875,0.23480224609375,-0.0582702309670427,-0.0524048849822522,-0.0788950820291614,0.09059753417968744,-0.9453720092773439,0.33401336669921877,-0.016544542061175543,0.023826103850448446,-0.01526449368322898,0.06584803171757274,0.03218649165525917,0.06911181269295802,0.03389018263441478,0.06389260210749578,0.03569424224787382,False
97,7.396000003814699,0.6757909614397629,0.380462646484375,-0.368072509765625,0.7066802978515621,0.140074550171007,0.222698057726279,0.488259426881274,-0.569259643554688,-0.99371337890625,0.0229644775390625,-0.38304592169551394,-0.65647240449784,-0.151548513411504,-0.019313049316406407,-0.8234725952148437,0.33012847900390624,-0.11173380237743413,-0.1094613802824913,0.08155685827547374,0.2716015003578098,0.22921236436126463,0.16653776881792456,0.18426803026069438,0.2775312527026001,0.21648988349626216,False
98,9.072999668121335,0.6203593088198783,0.2943115234375,-0.7116241455078121,0.750946044921875,0.057775149320397005,0.24614692480831799,0.22139044563104998,-0.24284362792968803,-1.1370849609375,0.0538330078125,-0.27800791882559,-0.259521053486587,-0.319121000785906,0.0889755249023437,-0.9114761352539062,0.26994171142578127,-0.029331283929416647,-0.009279065764886832,-0.017229160882602172,0.16129476574786591,0.10861110118158702,0.18461869762370528,0.09835958088333284,0.1572488788071867,0.14446768474210098,False
99,10.54300003051758,0.4067771877963366,0.289642333984375,-0.8028717041015621,0.354537963867188,0.116014487618795,0.0576925913266046,0.0929331367671871,-0.0753021240234375,-1.17413330078125,0.0978546142578125,-0.170898509259802,-0.144101249739207,-0.0736886020980565,0.04502716064453125,-0.9615127563476562,0.2806198120117189,0.0028980518982242355,-0.03671689542247887,0.0016171246771179224,0.1108468083062188,0.10913557337091058,0.0815187727492473,0.08659004146593804,0.06600377005592431,0.052553898429719526,False
100,11.635000038146938,0.24364171505667723,0.29998779296875,-0.63079833984375,0.476425170898438,0.235319310764383,0.17502001736280803,0.36475959238659394,-0.341064453125,-1.13899230957031,0.1171875,-0.41767820114312204,-0.488523878777519,-0.14831543584814802,-0.1377731323242189,-0.9761993408203112,0.2217941284179687,0.011338168656514368,-0.08335712854075653,0.03626261340373299,0.19562795812700834,0.16128528278578613,0.11282492934138166,0.18720766368667416,0.19562151704041209,0.15869551530529236,False
101,11.738999843597428,0.11628041431718675,0.28546142578125,-0.9407958984375,0.434295654296875,0.218852719428314,0.448261676785483,0.15004196318284602,-0.2384033203125,-1.14314270019531,0.122406005859375,-0.231481429317469,-0.300086056894565,-0.0635952215666562,-0.0457962036132813,-1.0336730957031244,0.25785675048828127,-0.03603568544724738,-0.014653484634332165,0.026004356569245997,0.16540937337294595,0.08305600948693206,0.08923487190216382,0.1362751720893989,0.19604629617331734,0.05788010340887271,False
102,12.083000087738043,0.07454317645001664,0.6258544921875,-0.82171630859375,0.455169677734375,0.187136068742124,0.103940514184703,0.23678538094447102,-0.23066711425781197,-1.11064147949219,0.155914306640625,-0.148587078279336,-0.20961181676184804,-0.0621656366935016,0.05463256835937511,-0.9796646118164066,0.24337921142578128,0.024045042323663827,-0.06524776628627217,0.051379594594182676,0.23718562497007373,0.08425466068731981,0.08353560780240714,0.12042829995108745,0.09960909759003835,0.0927917832698502,False
103,12.01599979400638,0.18209911780260316,0.48876953125,-0.7314300537109379,0.315216064453125,0.0815894021039946,0.181688040100149,0.249529139392718,-0.16972351074218803,-0.986328125,0.118682861328125,-0.201175455060695,-0.271848559856454,-0.20280024964175197,0.19214477539062486,-0.8869796752929686,0.2407104492187499,-0.03353910508335274,-0.021376022279186353,-0.0043398340491713015,0.23733910048138993,0.07194566361779713,0.068540084795491,0.07559425086368234,0.1276428722886346,0.13558537219793382,False
104,12.915000247955348,0.3240796819252906,0.339431762695312,-0.9090118408203121,0.368942260742188,0.16074494128776598,0.157851949395613,0.16511678653324,-0.220062255859375,-1.06402587890625,0.0231170654296875,-0.146383046161186,-0.13185656767924,-0.0842568242518179,0.0164138793945312,-0.9729263305664059,0.17401275634765628,-0.014028946727097553,-0.04490084271551414,0.020017064438140823,0.16956950532385984,0.050590233848435105,0.11093265124040906,0.08306149503616599,0.09458764456122098,0.07551495513810932,False
105,12.304000091552746,0.40661775984905474,0.566192626953125,-0.670745849609375,0.326156616210938,0.0776172973381414,0.20628393066368497,0.16003520885726,-0.152130126953125,-1.19548034667969,-0.0964813232421875,-0.28466049522860803,-0.15751319530495497,-0.18704498863284302,0.08405761718750004,-0.9774597167968748,0.17269897460937506,-0.0759682413595535,0.04218364608691725,-0.05174506019057416,0.20629127042170256,0.13289589943629782,0.13243991252435192,0.11612679216294214,0.10305059140389809,0.10721757163878999,False
106,11.735999965667741,0.09240042436668985,0.17961120605468803,-0.759490966796875,0.358078002929688,0.13784601697082802,0.295588776761748,0.21923807883804802,-0.310897827148438,-1.10511779785156,0.19688415527343803,-0.29325611396294704,-0.152179149957635,-0.16587099375395,0.014553833007812609,-0.9473312377929682,0.2664520263671874,-0.01853994213952828,-0.006577555155110405,0.02040508700896538,0.14395420457338182,0.12134798620044898,0.053532873496477076,0.11633623099390578,0.13083657320453937,0.10739713079307889,False
107,12.05299978256228,0.16398166961898042,0.28009033203125,-0.7783050537109379,0.373794555664062,0.14546718506230802,0.174562752603642,0.141694551062102,-0.1492919921875,-1.1343078613281201,0.14540100097656197,-0.281022084547341,-0.203704925464052,-0.144770502121143,0.03449096679687506,-0.9387084960937496,0.24453887939453112,-0.037727245476833,-0.015178260527132165,0.001572090623084718,0.13020639918798177,0.12835304583695334,0.07727976894673948,0.12814478012797353,0.12134861068436566,0.07843582113399043,False
108,12.43400030136109,0.18136526278270715,0.236541748046875,-0.87109375,0.288131713867188,0.293933089512045,0.19563794420609304,0.191393930692943,-0.2349853515625,-1.1681823730468799,0.0810546875,-0.12105531893009698,-0.312938738631396,-0.11341630765931401,0.027621459960937393,-0.9663589477539064,0.17681121826171875,0.09992292262743088,-0.05850810451560855,0.05107285169982724,0.1587618350057158,0.09370666431983242,0.0726327663650543,0.13857069691087803,0.16190674370514357,0.10223340253970706,False
109,11.838000106811542,0.3322250405671115,0.2723388671875,-0.492935180664062,0.331436157226562,0.640573066473958,0.3638818144913039,0.203699865457981,-0.606399536132812,-1.21113586425781,0.0229949951171875,-0.43860425572452905,-0.43600660839726596,-0.257849387270344,-0.05406494140625,-0.9408309936523432,0.1601760864257812,-0.025964329258062135,-0.024084989740015064,-0.006814203649574843,0.2455131994700216,0.20792184689660811,0.09290621944020318,0.31262013181839743,0.24375470212322078,0.16486048830889302,False
110,10.481999778747566,0.5754185693752196,0.17161560058593803,-0.9230499267578121,0.294677734375,0.139025797333733,0.43268245072462896,0.199729358588782,-0.42388916015625,-1.1478576660156201,0.0166473388671875,-0.203819974023143,-0.40934037640230203,-0.323407624876497,-0.04039306640625,-1.051960754394529,0.10955657958984363,-0.03780250640923882,0.0722472993161056,-0.07712764854011926,0.18408084102237973,0.06030165415648622,0.09327864880205795,0.10750549192275467,0.23761070654338848,0.15559633508525847,False
111,8.467999935150146,0.7948138870886439,0.171783447265625,-0.8086395263671879,0.2010498046875,0.11069375807692601,0.146561744270331,0.127099363024032,-0.322708129882812,-1.1205749511718799,-0.0089874267578125,-0.12919367290527,-0.0648809957409464,-0.120249446384239,0.0065017700195313,-0.9643966674804696,0.1367446899414063,-0.0025550900130437886,0.01097387485100235,0.00591631888805466,0.14671928651255062,0.09215416799855639,0.06617721201079528,0.06782629563267542,0.06888596079223547,0.06912896476932752,False
112,6.616000080108648,0.5722703232351231,0.2073974609375,-0.85577392578125,0.18891906738281197,0.0874462259732968,0.310649751674473,0.14885659018165198,-0.121978759765625,-1.11039733886719,0.092132568359375,-0.172955801201888,-0.13844735874496802,-0.121918183123282,0.01019592285156255,-0.9917007446289068,0.12808685302734354,-0.01603779576895528,0.03041998418304106,-0.0020552679396577114,0.094248253344676,0.07269041669552606,0.03600878309678818,0.08223916841138494,0.13192716299111135,0.08278435482315927,False
113,4.3980000734329225,0.9331642962175452,0.0981292724609375,-0.91400146484375,0.1815185546875,0.0258193467683182,0.0023161512000419104,0.0683012935289352,-0.052947998046875,-1.01664733886719,-0.0645751953125,-0.0814109703109593,-0.10864339035367401,-0.0213532256202553,0.02151641845703125,-0.9724822998046884,0.06181030273437489,-0.01764615864608683,-0.05359936599437459,0.02277463458886334,0.0432815667266385,0.03323927575585545,0.08540620350864539,0.03454638347709501,0.03920653618741182,0.02483153356489192,False
114,1.6540000081062307,0.9373272249319896,0.025115966796875,-0.941253662109375,0.276336669921875,0.00549942765101363,0.0032096417457635,0.0148146325118928,-0.0210113525390625,-1.02519226074219,0.03607177734375,-0.0213292571704446,-0.021173195930566,-0.012738165809958,0.0094573974609375,-0.9828918457031254,0.13903961181640626,-0.010380895402685258,-0.006208361133192725,0.00033622408762250787,0.013914037121375922,0.027727414542734696,0.07142297168420125,0.007986162304851363,0.007935740995642373,0.009336021613981426,False
115,0.0,0.0,0.0319976806640625,-0.954559326171875,0.23020935058593803,-0.00956927042887272,0.00223093004515938,0.00197872868992887,0.012054443359375,-0.966278076171875,0.21195983886718803,-0.0171875090431534,-0.020098876746828,-0.00333481031699722,0.020977783203125,-0.9599990844726562,0.22113952636718767,-0.014410497816473262,-0.005756822170369783,-0.0006657902725198093,0.00559754649555526,0.004382660515507805,0.005663860251663432,0.002351389607235128,0.005909351818936667,0.0016769900737059777,False
116,0.0,0.0,0.0232391357421875,-0.953125,0.22682189941406197,-0.011729360389036,-0.0009526127219213429,0.000937432703707892,0.018524169921875,-0.962127685546875,0.21348571777343803,-0.0234640471002521,-0.00837803847328028,-0.00125221834455526,0.02035980224609375,-0.9587326049804688,0.2202117919921877,-0.018029121210840233,-0.00456311347496357,-0.00017281252313524253,0.0015680058813183646,0.003349142956551395,0.004190104102258491,0.0034992149184800286,0.002010067462460286,0.0008696634213802622,False
117,0.0,0.0,0.0272979736328125,-0.952972412109375,0.224456787109375,-0.007485080559776709,0.0065814700019128205,0.000909735828371068,0.0174560546875,-0.976104736328125,0.21307373046875,-0.0307560484809981,-0.0115823538968636,-0.00566294574194449,0.021405029296875,-0.9606948852539062,0.2185760498046876,-0.016842869366486223,-0.003932716613330911,-0.000908643932324135,0.003033125903212437,0.006346630967307347,0.0034168801769170146,0.006814104030096289,0.004848059002021328,0.0022899348740537105,False
118,0.0,0.0,0.024993896484375,-0.9526824951171879,0.22618103027343803,-0.00853516497759495,-0.0009747169589690009,0.00420353346458107,0.0124969482421875,-0.9665069580078121,0.20634460449218803,-0.0159962770875609,-0.0105802063786668,-0.00441472213902435,0.01985931396484375,-0.9589370727539063,0.2191131591796875,-0.01216430785826772,-0.004601356468217107,-0.0007523962711691862,0.0038850943234146605,0.0038540682721034288,0.0055036505928642825,0.0027380137997144436,0.002569861696142566,0.002778454061624368,False
119,0.0,0.0,0.024566650390625,-0.9521026611328121,0.22344970703125,-0.0011685950863267699,-0.0009672601079167789,0.00302588363054803,0.0170135498046875,-0.9623260498046879,0.21382141113281197,-0.0213279255898996,-0.0138207407930752,-0.00228232905419791,0.0209228515625,-0.9560821533203125,0.21910705566406258,-0.014940999505617064,-0.005115106874104291,-0.00045963497253677594,0.0025457221505339636,0.003425731623295288,0.00331544925095283,0.006153921088329442,0.0036185047976577426,0.0015130441366520498,False
120,0.2939999982714655,0.537921915357195,0.15473937988281197,-0.8565673828125,0.49517822265625,0.0452356553277589,0.0288335124900699,0.0945241092024004,-0.124435424804688,-0.9432373046875,0.275405883789062,-0.0183928557525233,-0.205388842221309,-0.0407788552435113,0.0388534545898437,-0.9092010498046875,0.3887237548828124,-0.000956527568723764,-0.04275281687508893,0.015347397887963132,0.07451833840628858,0.02603048660775255,0.07346270960731346,0.01988708013151878,0.06663691813279929,0.037781183927160934,False
121,2.8020000219345107,0.8735598193083219,0.15168762207031197,-0.8503875732421879,0.465042114257812,0.0307126389552298,0.09309931801920801,0.0854869383593255,-0.0784759521484375,-1.08102416992188,0.16551208496093803,-0.0868866958282712,-0.13399002602850302,-0.0587053914891617,0.021282958984374947,-0.9546951293945319,0.2678924560546875,-0.029602766570939288,-0.022675671522756017,0.01073743940942507,0.07072365378179322,0.06322567356337143,0.0811476076541778,0.034125772797443506,0.0690433400632731,0.039809040317495686,False
122,3.5209999799728395,0.16017014551770986,0.118209838867188,-0.7913360595703121,0.280120849609375,0.0281570695731898,0.0701167704440422,0.0329496942708964,-0.026031494140625,-1.01826477050781,0.0534820556640625,-0.0629669818655065,-0.0434705121572544,-0.0608646825009979,0.05386199951171879,-0.9512359619140621,0.21230468749999995,-0.016104241638152765,0.014357634068835196,-0.0059594887293248165,0.0419270138130343,0.0607029711770336,0.07341382127404904,0.02635569999900002,0.03639503965429526,0.026611062393951643,False
123,3.839000034332274,0.12758004418968474,0.123672485351562,-0.921051025390625,0.267440795898438,0.0325749875055222,0.0561503547393397,0.0654658259163278,-0.0759429931640625,-0.9911041259765621,0.124862670898438,-0.0714520794146079,-0.0776407331557341,-0.0925720121233723,0.0390167236328125,-0.9546707153320313,0.1808868408203126,-0.017409403625178784,-0.012440371136865346,-0.010808279494421208,0.05722812358244451,0.026093115301163608,0.04345873449561927,0.031319942387137915,0.03961282604609971,0.047678645608279786,False
124,3.1580000638961776,0.5157906449648826,0.112335205078125,-0.907684326171875,0.255828857421875,0.0388105128818337,0.0180788690600029,0.0415530361723973,-0.032958984375,-1.10743713378906,0.104721069335938,-0.0587986021273145,-0.0449256633768737,-0.013308614915453,0.03555450439453125,-0.9787155151367186,0.1658676147460937,-0.010309283000973044,-0.017163194382400975,0.012413446578244643,0.038550166486121834,0.05500565638052005,0.043498447562026636,0.03448629234692004,0.019204330516491768,0.02016435812074882,False
125,2.287000060081478,0.32809380647484615,0.19078063964843803,-0.85400390625,0.578887939453125,0.0212528244471593,0.0544246263529683,0.105655057294496,-0.207550048828125,-0.98724365234375,0.24101257324218803,-0.0481371693354002,-0.023359384869412,-0.0589280317562923,0.045127868652343806,-0.9407440185546875,0.3276336669921875,-0.015333123344520302,0.007441271559844908,0.01165878662014892,0.11310049166539571,0.04474762058062874,0.09475312068227552,0.02216084820056935,0.025317526245593372,0.054663003191781294,False
126,3.7590001106262223,0.5170525492302068,0.1202392578125,-0.8756561279296879,0.39544677734375,0.0416590299837825,0.124476149350304,0.0630090598107297,-0.030975341796875,-1.00375366210938,0.236236572265625,-0.0483877727939767,-0.0627691089965136,-0.0856730933195221,0.056768798828125,-0.9419982910156255,0.315472412109375,-0.003312679448338661,0.023848580930048723,-0.00169478245450463,0.04958861265723983,0.0434597361005041,0.05249611025704466,0.02978111298118981,0.07308245995857766,0.044241487491163814,False
127,5.414999914169314,0.6824995450463615,0.345504760742188,-0.8547821044921879,0.40362548828125,-0.00034354778062022204,0.18431684641216603,0.0843481706772077,-0.0543212890625,-1.04745483398438,0.18061828613281197,-0.136763974619929,-0.0106318717038143,-0.0772513790043645,0.10836639404296891,-0.9517257690429691,0.2947280883789061,-0.06733184962892455,0.07383017574160516,-0.027535248090267177,0.10975577627054554,0.06192183010037193,0.06960179659207529,0.04677802970497698,0.06499233673188595,0.05011658336707538,False
128,7.323999977111816,0.594104551887721,0.1397705078125,-0.83477783203125,0.358596801757812,0.0753229840590381,0.192150801074743,0.0717418313412086,-0.265350341796875,-1.06600952148438,0.04052734375,-0.152405784966401,-0.19133827062616002,-0.202067614025871,0.02357482910156245,-0.938723754882813,0.22203979492187503,-0.04619242258098084,-0.00874592754626383,-0.02987787111154444,0.11946724697128744,0.06139357963845043,0.10426672069171639,0.06787214366422477,0.11484297163540441,0.07725387386930573,False
129,8.414000225067138,0.2046785358048365,0.18110656738281197,-0.85687255859375,0.22312927246093803,0.0413019000816029,0.0791145265029839,0.0807598274244349,-0.112930297851562,-1.04551696777344,0.0527191162109375,-0.14037202526476902,-0.156986954673555,-0.12332859323658801,0.05219879150390625,-0.95201416015625,0.1180664062500002,-0.031132166721750038,-0.018199749941881616,0.0004745753062521573,0.09452377196765871,0.061936760284151446,0.04536580765233049,0.059024021495478196,0.07180599471760289,0.057069363479750015,False
130,8.113000106811525,0.43029839581639584,0.1478271484375,-0.94305419921875,0.105606079101562,0.0520197918886268,0.10495597750835002,0.0596058062537175,-0.0905609130859375,-1.04417419433594,-0.0256805419921875,-0.0463427313929049,-0.0454761387741931,-0.0861015959389158,0.0477066040039062,-0.9941329956054688,0.04399719238281245,-0.014296061784432565,0.012537416726987832,-0.006789249830160787,0.068088135385782,0.03479629017995792,0.03772246382738857,0.02684988121226855,0.05736825870131103,0.05181727254203257,False
131,5.859000039100645,1.149555075147552,0.0895843505859375,-0.9727020263671879,0.0538787841796875,0.0611320638744419,0.0876004230004124,0.0829175205396171,-0.127334594726562,-1.08517456054688,-0.10400390625,-0.0578465220376111,-0.138204478453553,-0.0160343602911491,-0.0090057373046874,-1.025038146972657,-0.02992706298828125,0.004792358381597599,-0.038003042439321705,0.018059534510488924,0.07053659220984186,0.033645945860132566,0.052256427690631574,0.03167262120772636,0.0572803011237314,0.0363974032955483,False
132,3.041000056266781,0.5459029527153926,0.0561370849609375,-0.95281982421875,0.251083374023438,0.0149515189919229,0.0277008700784592,0.0315882863216479,-0.001617431640625,-1.00730895996094,0.0459442138671875,-0.0409631459909448,-0.00823822251605111,-0.0118723721395732,0.03604278564453125,-0.9765625000000002,0.12058105468750016,-0.018837630286177385,0.006079757084152796,0.002456979158485311,0.01959074607870003,0.017365993204054846,0.07335262245105995,0.016989477908377144,0.00984825818646998,0.012110255361673638,False
133,3.074999999999997,1.0343140023830883,0.213348388671875,-0.7773895263671879,0.429794311523438,0.10938508071726101,0.0831460197611459,0.0326242559856887,-0.03143310546875,-0.9684600830078121,0.2855224609375,-0.19157396038263197,-0.0276577268687999,-0.107088370593176,0.08249969482421879,-0.9188629150390625,0.3522491455078125,-0.02121018723810714,0.017047826243978742,-0.02041259712323932,0.07751062439479939,0.05671126028094201,0.0400306355517072,0.07416767605013298,0.036559679762626036,0.03972943942303994,False
134,7.323999977111816,1.7302100442080623,0.22016906738281197,-0.8595733642578121,0.368972778320312,0.0835470918213118,0.0543961305293045,0.0671374921325706,0.0218505859375,-1.02360534667969,0.21142578125,-0.07642846222753,-0.058178351909435,-0.0755120684964337,0.098455810546875,-0.936143493652344,0.2875167846679688,-0.021826282924686104,0.0005662146793617552,-0.00779504587905101,0.05963476234810026,0.04828683891122638,0.05584147460766831,0.04422788525336767,0.03920110851432188,0.03985235345474263,False
135,10.441000175476095,0.565615669015242,0.13787841796875,-0.8763580322265621,0.23979187011718803,0.0471017323035774,0.0932937287787838,0.12774358169172198,-0.069000244140625,-1.07814025878906,0.027801513671875,-0.0733679575028109,-0.16938210533511097,-0.0566480995470755,0.0354461669921875,-0.9682296752929689,0.1718399047851563,-0.010099559065129294,-0.005039552993978784,0.0037479731285121358,0.08217509810667384,0.06115323806873477,0.05945583891585218,0.03714805561378718,0.07880588554609506,0.05563866574582699,False
136,11.16099987030032,0.057821495259791175,0.496871948242188,-0.16047668457031197,0.263412475585938,0.7125018517236898,0.16456631113592002,0.0945145218224761,-0.135833740234375,-1.12297058105469,0.0584869384765625,-0.11794181729968499,-0.16145600529881698,-0.08479691332088601,0.06989898681640624,-0.9067398071289068,0.16562347412109385,0.08781315630828788,-0.005888568749496004,0.007738027600112418,0.19554765895373802,0.28952375586156215,0.06376483092852474,0.23158323690565183,0.09831542346702368,0.05985302833477437,False
137,10.95200033187866,0.3577959789388745,0.35858154296875,-0.8190155029296879,0.124435424804688,0.174871146657873,0.16925240939002403,0.0561136031162966,-0.11016845703125,-1.20068359375,-0.132095336914062,-0.135807633472482,-0.0676165948126758,-0.0408206668726256,0.07428741455078117,-1.0226150512695324,-0.0102600097656249,-0.02354306308979484,-0.0019718843659273606,0.015010907484231631,0.17298203018475553,0.10630963353132855,0.07533519540421442,0.08695539924190859,0.06955883472955776,0.03513046562557136,False
138,8.521999931335449,1.298766656720899,0.04449462890625,-0.9139556884765621,0.077972412109375,0.0152186340492578,0.0149754874417336,0.0876020208970665,-0.0894012451171875,-1.03779602050781,-0.110885620117188,-0.0962485060082267,-0.11603818975249701,-0.0593469469957618,-0.0270660400390625,-0.9835693359374998,-0.0255264282226563,-0.02320548079001634,-0.05898963067230588,0.013668807452886192,0.05262628159682788,0.03945004214568548,0.06111947252372149,0.03879582025390943,0.04296516350042144,0.043436785632338513,False
139,5.093000030517578,1.2135353192662488,0.114776611328125,-0.9974365234375,-0.0176544189453125,0.0391399459086765,0.00849015755517261,0.0479350354086632,-0.0672454833984375,-1.05819702148438,-0.0982513427734375,-0.0763091526106945,-0.08395721862918401,-0.0614252779104596,0.022796630859375,-1.026393127441406,-0.05667266845703125,-0.010277564752390216,-0.02950771835163434,-0.019860656987320424,0.05050496652273233,0.01914881912798377,0.02658851809606463,0.030291039883437794,0.025010583155390294,0.03484390287665842,False
140,2.116999995708468,0.5925096973791668,0.0895233154296875,-0.932342529296875,0.229766845703125,-0.00301975836004085,0.0181113596253019,0.0202011421326871,0.01397705078125,-0.9952545166015621,0.0577850341796875,-0.0292351171824538,-0.078547006874688,-0.0138862545558912,0.05023040771484375,-0.9652191162109374,0.1685119628906249,-0.014936711816262022,-0.022559211488286803,0.005236360598535597,0.02515308561992015,0.0209510850622944,0.07120898552564854,0.008484669081024713,0.030499322646231678,0.010343977763674336,False
141,2.4660000324249287,0.44086280144486106,-0.0224456787109375,-0.9376373291015621,0.21612548828125,0.0603600134744279,-0.0966157559225486,0.173908680239918,-0.2293701171875,-1.01922607421875,0.140533447265625,-0.0276089910208515,-0.518212265977505,0.019158514565921003,-0.10371246337890624,-0.9841629028320312,0.1883193969726563,0.01794397995079039,-0.2939023832646769,0.08421349462088226,0.06278876910133128,0.020508157447154375,0.02504450402541808,0.02416906851599001,0.12428551594747884,0.05438433514043886,False
142,3.927999997138978,0.5813355903494278,-0.0689239501953125,-0.7482757568359379,0.586929321289062,0.21521004768930302,-0.133678436180963,0.270382755992475,-0.392059326171875,-1.05177307128906,0.207672119140625,-0.0534128914548472,-0.6476368349492839,0.0168575433840926,-0.19276275634765633,-0.91492919921875,0.40857086181640623,0.0685497398270287,-0.41666042086932664,0.11660834591027158,0.11406168276250529,0.09033767946014547,0.13713080634209265,0.09132489159844294,0.19071482736205878,0.07363736714387314,False
143,6.472999858856201,1.1725002149569537,0.152191162109375,-0.7798919677734379,0.613922119140625,0.080764621114397,0.14797748070581698,0.12602983753025598,-0.369644165039062,-1.01332092285156,0.350143432617188,-0.150456084732354,-0.195548461993466,-0.126416794836644,-0.09209594726562491,-0.9002899169921867,0.5164978027343751,-0.026011413946134786,-0.08694422010781692,0.03215772342592865,0.15813102066703597,0.08401270974910725,0.07245920140065146,0.06357105130558198,0.10217159390111547,0.07911390946144395,False
144,9.450000190734865,0.9372537645018084,0.1129150390625,-0.82666015625,0.536087036132812,0.0759469627024437,0.169562401340909,0.0397785719380776,-0.0950469970703125,-1.03459167480469,0.359375,-0.0839652081124543,-0.13391332698910802,-0.12696141127956598,-0.00463104248046875,-0.92200927734375,0.4501998901367186,-0.02080546664724783,-0.0015712650431467198,-0.028996737633280874,0.07309189148886443,0.06001695009325425,0.04818957079431836,0.0491235789173549,0.08779161429840655,0.056269093885872604,False
145,11.29200000762941,0.27879880238280963,0.19206237792968803,-0.8621826171875,0.471389770507812,0.0884068281784884,0.17271345354269102,0.0892305439036499,-0.17375183105468803,-1.1129455566406201,0.273666381835938,-0.29426065832612497,-0.295005278166911,-0.0927789397400715,0.00736236572265625,-0.966612243652343,0.3721343994140625,-0.057431468381722306,-0.01664824555402315,-0.014512443623001492,0.09959797499180215,0.08610203597828502,0.06219761968720754,0.10103760112798722,0.12712384906439764,0.06714027465600424,False
146,11.279999828338628,0.3414025186568226,0.1954345703125,-0.7022552490234379,0.471237182617188,0.139958436347479,0.29877098794828305,0.0269807513197018,-0.1434326171875,-1.21929931640625,0.14988708496093803,-0.3092787563453,-0.0812157606030564,-0.19745581796618103,0.018389892578125,-0.947424316406251,0.2629287719726565,-0.028769250412966314,0.10197672582848902,-0.0518426117813038,0.1012795530506486,0.18162668669169071,0.09466697326393228,0.16121683027816952,0.1274471249011652,0.0778390950658602,False
147,10.158000087738053,0.326625536295192,0.0823974609375,-0.831298828125,0.539993286132812,0.0268313479825483,0.0796652682164123,0.0464870747239872,-0.157318115234375,-0.9397735595703121,0.17376708984375,-0.31008409625894,-0.0901517313247083,-0.05236387230146499,-0.0195770263671875,-0.8726745605468749,0.30415039062499993,-0.0603966852026383,0.01060318945887417,-0.00864233057985973,0.06583897445247168,0.039358729250301296,0.11434025018458664,0.09217832464052937,0.06513395630504891,0.03236715148513593,False
148,9.81000013351441,0.531977343138253,0.15766906738281197,-0.872802734375,0.313522338867188,0.0175044252128728,0.0537385960561639,0.105687015227577,-0.24461364746093803,-1.08000183105469,0.15007019042968803,-0.11454149321987199,-0.20306949522795897,-0.0307211610707181,-0.024957275390625106,-0.9553054809570314,0.21247100830078133,-0.0503440776675271,-0.05285469289036661,0.02350415430626877,0.11248330162328575,0.06522714541257423,0.04641501932550559,0.04715340095045226,0.08302899025295697,0.05211978039195562,False
149,8.382999801635744,0.42494561277966836,0.109420776367188,-0.9134063720703121,0.279342651367188,0.094374439549138,0.0555601982417781,0.0736268167607667,-0.0019989013671875,-1.04759216308594,0.0772705078125,-0.205555822421657,-0.0986607973236205,-0.0527156758814645,0.04511413574218755,-0.9833389282226564,0.15993804931640637,-0.023519068008373174,-0.012614169029603921,-0.015774968400975354,0.03616903268139368,0.04254827255507237,0.06168529332436262,0.08339827509334584,0.05191140967043985,0.04178518331240172,False
150,6.747000074386596,0.7057550000887408,0.22407531738281197,-0.885650634765625,0.24017333984375,0.213064338799026,0.139610627509115,0.10982849703875901,-0.0501861572265625,-1.01780700683594,0.123504638671875,-0.052699164282706,-0.0956154726171149,-0.110622917991929,0.05019989013671875,-0.9618927001953127,0.1915420532226563,0.016130926512275316,-0.02850184240791142,0.027320544043185048,0.07949539490067993,0.03801520563960428,0.037606789668556004,0.08033817565650687,0.06826136248250757,0.06340084618453506,True
151,5.547999954223634,0.2791974189180548,0.045867919921875,-0.9287109375,0.24421691894531197,-0.0056632120580535,0.0692003767129459,0.0436883587344229,-0.14422607421875,-0.9893798828125,0.1728515625,-0.0566939059178248,-0.0975273559636828,-0.0560382356574473,-0.00757598876953125,-0.9576324462890625,0.2236526489257812,-0.024670725390167035,-0.027177399134593234,-0.0018883942657533885,0.05595962479291381,0.019415550066207068,0.02202768035406052,0.019483774973575944,0.053771555309365636,0.033832572788997234,False
152,4.15400004386902,0.7812126604683839,0.134994506835938,-0.96435546875,0.120071411132812,0.0286460259493283,0.0917490953465379,0.0452641511514228,-0.02392578125,-1.04171752929688,0.010528564453125,-0.0440228517673368,-0.11056166528685801,-0.0966442517462125,0.02880859375000005,-1.0099899291992191,0.04914245605468745,-0.012822028752684594,-0.04501922022596821,-0.005879274317291629,0.04898782574803901,0.026477058959369238,0.04087135395542167,0.026409754454370184,0.05936288850706418,0.03868033441116116,False
153,1.3630000054836258,0.7827593430556079,0.0715179443359375,-0.94757080078125,0.24452209472656197,0.00396331633425592,0.00652447835458513,0.0212304538940027,0.0419769287109375,-0.996337890625,0.0892791748046875,-0.0247271844052767,-0.0179212099234702,-0.0129948945390416,0.0560302734375,-0.9644500732421875,0.19450683593750015,-0.014115179883194374,-0.004481887061716145,0.0017862354063379582,0.010107463031875432,0.014579584286942601,0.062259748665655125,0.008775065690652572,0.00824282244826966,0.012073639864401955,False
154,0.7130000174045568,0.23692707854001457,0.085968017578125,-0.9215087890625,0.359024047851562,0.0145736164332406,0.0107722202932615,0.0636050752626895,-0.0051727294921875,-0.97015380859375,0.23023986816406197,-0.0317134548928816,-0.21282838272644503,-0.0148745536364196,0.04413604736328125,-0.9409133911132814,0.29971771240234363,-0.012572836769485892,-0.05001869264554122,0.004265212275427305,0.026342784171366908,0.018480116265730786,0.04523118049299057,0.013857208430951229,0.07063297242908421,0.024291375304727126,False
155,2.048000049591066,0.5947137952327615,0.0164947509765625,-0.9158172607421879,0.350204467773438,0.0203068696279632,-0.15508119659749403,0.12355363034870001,-0.123504638671875,-1.0133056640625,0.23370361328125,-0.0327760561678232,-0.378629867975945,-0.0110827448763648,-0.0514129638671875,-0.9526443481445312,0.2814025878906251,-0.001307452305563498,-0.288673612675248,0.06982225145909035,0.047094933589737126,0.027972264291430626,0.0413419174012201,0.016302934017830794,0.08172786058999991,0.03506178427606231,False
156,3.2010000228881865,0.3153991960720552,0.0056915283203125,-0.843048095703125,0.432281494140625,0.0175022946840008,-0.101975900248551,0.15681198498993698,-0.16337585449218803,-0.9785614013671879,0.258392333984375,-0.0618918637334415,-0.434963181882173,0.006796387101882221,-0.0687850952148438,-0.9266891479492188,0.3256637573242188,-0.008841561661008556,-0.3198960072947298,0.0818739076032478,0.046085347095069465,0.03724715469464942,0.06311370544326853,0.023800072390476615,0.09593017394516333,0.04699022645001678,False
157,5.536000061035159,1.4742319886273116,0.142852783203125,-0.8560028076171879,0.432861328125,0.0416118920324881,0.0512040656467355,0.0702408737508399,-0.0948638916015625,-1.00672912597656,0.132797241210938,-0.0727346577955901,-0.267196816380413,-0.0451536299661845,0.054591369628906296,-0.9266464233398437,0.3056869506835938,-0.01190395723010158,-0.09480240953631376,0.02421921305895501,0.06469576893880652,0.04807644992276706,0.10241568127160557,0.042747707485069585,0.09642602626283489,0.03459456426676473,False
158,7.338000011444092,0.12136262460468081,0.15785217285156197,-0.8859710693359379,0.263381958007812,0.0364118036879994,0.0720875096507008,0.0780561862857864,-0.053436279296875,-1.03759765625,0.07269287109375,-0.0592689163758225,-0.107295298209875,-0.0658280158245786,0.07451934814453118,-0.9663955688476568,0.16882476806640606,-0.014228630545631744,-0.023096530869821212,-8.607336643136404e-05,0.07376766706809623,0.048459547595227366,0.06338516055343078,0.03399256884869953,0.06166739978387151,0.04728148556158435,False
159,6.197999954223633,0.9949741534737263,0.119598388671875,-0.9654388427734379,0.0565185546875,0.00108736867307935,0.0204565392812257,0.0150077116909235,0.0167388916015625,-1.04338073730469,-0.047576904296875,-0.038046718281198995,-0.0287221923565046,-0.0152279551130731,0.05391998291015625,-1.010728454589845,-0.00813446044921875,-0.018658905545422173,-0.007644177803298029,-0.0025169801778447947,0.03215014910252042,0.02509406865466792,0.034778343487923406,0.014091584210785666,0.015613872196071361,0.010287678688328685,False
160,2.272999942302701,1.4183248627260676,0.0808868408203125,-0.947845458984375,0.22999572753906197,-0.00994477614257389,0.0235370177141203,0.0106342685487954,0.031982421875,-1.01728820800781,-0.0426483154296875,-0.0224698890653256,-0.0286540154325986,-0.0108297445728072,0.0668731689453125,-0.9892364501953116,0.08441009521484359,-0.015471234878651829,-0.0052180646818467645,-0.0006780408135341725,0.01552534310429628,0.019990934452762482,0.0804808819195383,0.004228916391910578,0.014670503252790233,0.006662294718279972,False
161,0.1,0.12909944487358058,0.078826904296875,-0.9569091796875,0.21034240722656197,-0.0128167290621153,-0.0041508028749975,0.00414600918503536,0.07305908203125,-0.97174072265625,0.19233703613281197,-0.0170756562773701,-0.0137296606837945,-0.00335132191575571,0.07562103271484374,-0.9628158569335937,0.20196228027343718,-0.015380607506756419,-0.005963137260018224,7.115966432691805e-05,0.0019334417180618074,0.005264360608486454,0.004891408136152254,0.0013386514893315078,0.0028394063328898733,0.0018757636678008677,False
162,0.038999998569488506,0.12332882422289225,0.12884521484375,-0.9272308349609379,0.344436645507812,0.00641102769214775,0.0245466220833693,0.0041979408262919,0.0704498291015625,-0.9643402099609379,0.200775146484375,-0.0170543509886494,-0.0127006152385879,-0.00550768345039287,0.08556976318359374,-0.948980712890625,0.2608108520507813,-0.011403682419330204,-0.0023724770570970957,-0.000643739298693954,0.01664131903419897,0.014448242895118979,0.05599375746659159,0.007078594900476911,0.010335212441591,0.0027023656165044404,False
163,1.282999980449675,0.8743511847481734,0.379409790039062,-0.8444366455078121,0.3829345703125,-0.00914662676387714,0.574167411008941,-0.0184085684029547,0.118255615234375,-0.96112060546875,0.20237731933593803,-0.130045884454095,0.0617712225360609,-0.143553437502977,0.21887512207031232,-0.9177444458007813,0.3316253662109376,-0.05082256782058162,0.2847593783998823,-0.06021684193422518,0.085599730646471,0.03742640789526736,0.051583974433249455,0.040537942329942685,0.1612975716652968,0.039482147342789986,False
164,3.888999891281126,0.8746103625846855,0.303970336914062,-0.847686767578125,0.379669189453125,0.11272947841418199,0.637012153780413,0.0196658467535811,0.111572265625,-0.9798126220703121,0.18141174316406197,-0.144012033842689,0.20147825647663697,-0.182438785211442,0.23343505859375,-0.9124984741210935,0.29640960693359364,-0.021208296393733277,0.3635966432017782,-0.08773203642148411,0.06077853963788615,0.04293756982285614,0.05667130839955212,0.08268743524430514,0.12117223200825442,0.07340391863079605,False
165,6.594999933242798,0.6671205982551288,0.311416625976562,-0.72857666015625,0.586227416992188,0.109002384468616,0.289606518005103,0.159689796863876,-0.178955078125,-1.15049743652344,0.218505859375,-0.17175764502746102,-0.251407999541769,-0.0952791153714379,0.1186691284179687,-0.9547195434570315,0.3666259765625,-0.012378346115077382,0.019233162971276148,0.035541802223092306,0.14914194973973172,0.15749015642767947,0.10530877043340812,0.08302539615984518,0.19290231280818368,0.08988409134231748,False
166,8.322000122070312,0.5649348420238474,0.379638671875,-0.719696044921875,0.5684814453125,0.257050172627211,0.38686595996312395,0.155091316609636,-0.33062744140625,-1.27278137207031,0.18537902832031197,-0.448353555843091,-0.18544123302439802,-0.330784048463799,-0.10832214355468764,-1.0025573730468744,0.3449447631835938,-9.832390744564934e-05,0.13338016213887455,-0.06751669964018703,0.21529885060680312,0.17398554752417955,0.11992348540831872,0.19277006173311156,0.1819637365400266,0.145085056754045,False
167,9.496000003814697,0.13914008435295672,0.425704956054688,-0.459930419921875,0.481704711914062,0.334174518847579,0.14861051409692902,0.234157373580781,-0.266342163085938,-1.18998718261719,0.015869140625,-0.15294560771936,-0.20928957426994801,-0.157367520393327,0.10404968261718757,-0.8968109130859375,0.2511444091796874,0.006715027530580273,-0.059389530941592175,0.06024986513174228,0.212804811162819,0.20752952554110282,0.13108510958287237,0.17388830194608051,0.13101301592313086,0.11792310018258109,True
168,10.061000061035175,0.4285492454234226,0.467544555664062,-0.484542846679688,0.74627685546875,0.308598318686785,0.616695696772526,0.311000489990036,-0.69915771484375,-1.28398132324219,0.106704711914062,-0.49498177810485205,-0.305223827269545,-0.34047209587728905,-0.08820343017578129,-0.9624603271484384,0.2926437377929688,-0.04572615633732968,0.029012157335992505,-0.03551485103286067,0.31264880790223043,0.2466035194392519,0.19558966561261046,0.27093305085145714,0.3043388314133833,0.2135240334863902,True
169,11.273000049591058,0.16573433745207553,0.1365966796875,-0.758331298828125,0.307083129882812,0.158399228999624,0.137255860473267,0.15261537574419,-0.134429931640625,-1.1221923828125,-0.0050048828125,-0.0935379406507441,-0.22054675619771302,-0.0753733178036406,0.00154724121093745,-0.9802810668945323,0.1792968749999999,0.05914385433103234,-0.028678889357179882,0.004731158939747629,0.10705879392438285,0.09435485308672349,0.09877422846908286,0.0841496432151075,0.1343176853080054,0.07559877443590593,False
170,10.165000152587897,1.0661693109270394,0.20216369628906197,-0.657669067382812,0.153900146484375,0.10499672387302801,0.141634363621466,0.14663631278085298,-0.130096435546875,-1.23292541503906,-0.22200012207031197,-0.40072291974702395,-0.215530692284549,-0.11394334723903998,0.03868408203124989,-1.0055221557617173,-0.05332183837890614,-0.04535355346921683,-0.047887071877430895,0.027274178408606707,0.11886931249665152,0.17121193536729876,0.13156736026495586,0.14780476751572796,0.12285394453031007,0.08418042213293457,False
171,5.418999886512754,1.9848450111926335,0.197723388671875,-0.8883819580078121,0.14311218261718803,0.0100339920390915,0.114131632728109,0.0775429951437282,-0.12261962890625,-1.1400451660156201,-0.171234130859375,-0.0502184297272972,-0.10955392513037199,-0.0807747411265393,0.00928497314453125,-1.017982482910157,-0.019911193847656092,-0.014818227779364401,0.006159066021415339,-0.003259629279424288,0.08793874331462075,0.0663381646099153,0.11404241313758338,0.020766984198562138,0.058766839385775,0.04960623236190073,False
172,0.5060000002384176,0.7030125691857971,0.07415771484375,-0.9380035400390621,0.302810668945312,0.00223599005123053,0.00636708553416144,0.0267921995145242,0.0185546875,-0.9875030517578121,0.117996215820312,-0.0240179846069886,-0.0744017966379797,-0.00851385968887432,0.0488677978515625,-0.9572494506835938,0.23439178466796862,-0.012874279973271952,-0.042357497242877594,0.007121132965206478,0.020534169451273183,0.016211847311045535,0.05698330005581776,0.00862233705442285,0.02880311476528399,0.01207237821098455,False
173,0.23599998950958243,0.3046746763585792,0.0575714111328125,-0.946533203125,0.275619506835938,0.00203225822783947,-0.00202426874456923,0.0106180232661459,0.036407470703125,-0.9839935302734379,0.12127685546875,-0.0159882876042907,-0.0265197581350091,-0.00335664823793587,0.04837493896484375,-0.9641098022460939,0.20497436523437532,-0.012433846392194654,-0.007258472182621869,0.0019172363003589425,0.0054573495142192854,0.01190951380813404,0.04659335518373417,0.005336848067487086,0.007063633600664023,0.00381867268817469,False
174,0.0,0.0,0.050506591796875,-0.943450927734375,0.270263671875,-0.0117453393555765,-0.00205063403936101,0.0074142404747806,0.0409393310546875,-0.963165283203125,0.21392822265625,-0.0170903036633655,-0.0286409659432572,-0.0012165319859482,0.04619140625,-0.9549240112304688,0.2365310668945313,-0.013832911439256884,-0.010015110226962885,0.0014835405168395406,0.0034900052612640603,0.006767293305708697,0.021594511868617612,0.0020118979946366273,0.00801374011280309,0.0027389134271763806,False
175,0.5660000085830692,0.5643521517173211,0.105117797851562,-0.8986358642578121,0.459228515625,0.0298921190233764,-0.0361076706915123,0.105091798723944,-0.1822509765625,-0.947784423828125,0.2861328125,-0.0373103542397921,-0.381615537874032,0.00639957609946041,-0.0054916381835938,-0.9214035034179687,0.37912292480468757,-0.01324043799154695,-0.17637620551632033,0.05384355123472395,0.0795260267957676,0.017021290643717667,0.05423447404530222,0.020002967240180615,0.10614835148246424,0.03875013313393871,False
176,2.9720000267028817,0.9576220744296314,-0.0277557373046875,-0.900665283203125,0.46014404296875,0.0861964044737226,-0.23749058600112402,0.173996031923673,-0.288955688476562,-1.00326538085938,0.24308776855468803,-0.0554984129044883,-0.6474243146942961,0.0149054463050645,-0.18420104980468746,-0.9616424560546883,0.3280410766601563,0.017417686056168925,-0.47036551435897744,0.11174533386495429,0.09367441755437013,0.03470434584658514,0.06163603633304157,0.03961053941045716,0.11994546240262642,0.05133650477880803,False
177,6.002000045776366,1.6665252890781925,0.272781372070312,-0.7903594970703121,0.5125732421875,0.133787359469548,0.0117698404376052,0.248863615436308,-0.21937561035156197,-1.05502319335938,0.319046020507812,-0.14872822581710998,-0.37086675339836406,-0.0727391851694432,0.00850067138671875,-0.9267578125000006,0.4363510131835936,-0.005150899759154907,-0.1128215438930662,0.03446388777188281,0.15021340455399215,0.07193727509299849,0.05632384001406293,0.07505939679022908,0.10469182474588637,0.09204296290445593,False
178,9.106999969482423,0.5665889098581316,0.17266845703125,-0.929107666015625,0.352310180664062,0.0586989999025455,0.0397559350688119,0.0511614550692942,-0.0951995849609375,-1.02932739257812,0.0760955810546875,-0.0700179671676003,-0.173759809534983,-0.0354133845953287,0.0470916748046875,-0.9873794555664055,0.20564270019531233,-0.02020340581961364,-0.004336931203583153,-0.004567134848209592,0.0764319172768248,0.03315155338334066,0.09694171594185463,0.041889818407508606,0.06373016854675652,0.02784181576502647,False
179,8.126000213623046,1.1497652857065477,0.0883636474609375,-0.97491455078125,0.108642578125,0.0231687025353623,-0.009223858435489441,0.0994144719121129,-0.203948974609375,-1.0557861328125,-0.0885162353515625,-0.0534696167860659,-0.300117748511537,0.0028367991931524,-0.061175537109374956,-1.016955566406249,0.0094085693359375,-0.014611220267832539,-0.12307793651479026,0.03535309062824928,0.09954701260403664,0.030356554385661472,0.06549385081500837,0.029141816407275364,0.11579431841510737,0.029987867995777448,False
180,4.022000074386596,0.9509153629617527,-0.0276336669921875,-0.87359619140625,0.391021728515625,0.0491619537228627,-0.292419615064553,0.227372704387695,-0.173980712890625,-1.01918029785156,0.062774658203125,-0.0526586842341368,-0.441531336078635,0.0388270244805922,-0.10723266601562505,-0.9695358276367182,0.22085876464843754,0.017353051136512698,-0.3648453994369162,0.10411548386832073,0.05299155450348789,0.04697712905928271,0.11312986467649175,0.03172368691051355,0.05244603555840249,0.05084895630597166,False
181,3.526000070571899,0.36176115547325843,0.15434265136718803,-0.830596923828125,0.416641235351562,0.016838102308135,-0.0167608706365227,0.191325753769037,-0.18669128417968803,-1.00276184082031,0.30450439453125,-0.14828081475397697,-0.5298108651570179,-0.0494221445613635,-0.0023223876953124474,-0.911207580566406,0.3675064086914061,-0.03551264060915592,-0.2514364154706004,0.05284963288429552,0.11890561558105434,0.05322521509305149,0.040277302402952464,0.0531429011213804,0.172025477938146,0.07061438844468076,False
182,4.696999955177303,1.2916143607896675,0.160980224609375,-0.8101043701171879,0.407852172851562,0.068294901942319,0.0615765454603761,0.07810998213980601,-0.131591796875,-1.07139587402344,0.123367309570312,-0.146038166800021,-0.162645373041646,-0.0785257015859674,0.04146270751953136,-0.9459381103515625,0.2759033203124999,-0.03681625796274969,-0.07421897062914581,0.011649572082777221,0.09227849824459046,0.08573998163813797,0.07814717117264175,0.057867726423111755,0.07373987355249358,0.05577835663678785,False
183,6.18099989891052,0.13510896828032581,0.4859619140625,-0.7110595703125,0.336654663085938,0.206280468554268,0.206117483095555,0.21269043098197896,-0.339767456054688,-1.08805847167969,-0.335357666015625,-0.3792131002546721,-0.0610577616800287,-0.16615568567448002,0.1151748657226562,-0.9071990966796882,0.12234344482421884,-0.06969308814622141,0.03406665066368646,-0.0013345632854605848,0.22448584371315755,0.1278510516912419,0.18586998580671832,0.16758935546556056,0.0918167505600005,0.09700203084896346,False
184,5.773999977111812,0.20484145760210198,0.227569580078125,-0.692718505859375,0.365707397460938,0.231817253930928,0.205564078221036,0.0542531187787672,-0.132766723632812,-1.15631103515625,0.056243896484375,-0.338493899819578,-0.19869338892474103,-0.143614690208049,0.1012298583984376,-0.9949539184570314,0.18291320800781263,-0.026627030263717395,0.018144223033153405,-0.03635747520176176,0.11342337086272954,0.13636140483385167,0.11285772964473756,0.1742021856531248,0.13448012327946238,0.0667307233587386,False
185,6.423999929428099,0.3681545097585634,0.567245483398438,-0.74432373046875,0.40386962890625,0.285372358187986,0.4381589751902679,0.22331431320252298,-0.297531127929688,-1.10038757324219,-0.0208892822265625,-0.39892075863736703,-0.24318921810167604,-0.161201140782496,0.1270156860351562,-0.9240158081054691,0.17287445068359392,-0.02131682020815389,0.1101295673999922,0.01474440495394736,0.24502319461103025,0.11979454602231292,0.13938048012305296,0.18430445986883745,0.1958714004073117,0.12027343204332774,True
186,6.072000026702881,0.819821258168554,0.346160888671875,-0.8101806640625,0.0779571533203125,0.06006173943233901,0.32070238584119504,0.0371588203737666,-0.3978271484375,-1.19256591796875,-0.22381591796875,-0.243717322945838,-0.0371993004223358,-0.163467757186263,0.05408172607421866,-1.0380249023437502,-0.01889190673828125,-0.08548001414049129,0.12223461992400567,-0.0677223755711738,0.2545553115499824,0.09785260434504446,0.11177240466783578,0.08340137744622403,0.10318763105377557,0.07725953375282289,False
187,2.897999906539915,1.684292040832284,0.189544677734375,-0.9199981689453121,0.266983032226562,0.00409061543436171,-0.00308287527787573,0.0876393051523276,-0.2469482421875,-1.08509826660156,-0.156463623046875,-0.117274429130511,-0.201894774871125,-0.109756059057109,-0.026925659179687554,-0.9887237548828128,0.033454895019531306,-0.02578701599268462,-0.05354833982788868,0.010749556792384892,0.12759364220139494,0.0495325060329839,0.15036891224722188,0.03423315495337878,0.0664572350374264,0.05711272904341917,False
188,0.0,0.0,0.03021240234375,-0.9609832763671879,0.215606689453125,-0.00868430199863939,-0.00308687001951085,0.0116111160366365,0.0074920654296875,-0.975799560546875,0.154815673828125,-0.0182242776555212,-0.0147914630104091,-0.00440380317855503,0.01674957275390625,-0.9692001342773438,0.17736968994140628,-0.01352427770052759,-0.007357461880340118,0.0037188914094084544,0.007708845509501336,0.0055821139970398375,0.016672344175167594,0.0027930001042816787,0.003321888784889752,0.004569324729477301,False
189,0.0379999995231628,0.08011103305233785,0.021240234375,-0.952362060546875,0.24803161621093803,0.010518154725267998,0.00430606516654912,0.0352168433068808,-0.012969970703125,-0.97528076171875,0.16587829589843803,-0.0181403880811837,-0.0233780269970426,-0.005515939249772121,0.00948333740234375,-0.9644317626953125,0.2024291992187504,-0.009649218524796893,-0.006211716716166218,0.009086679007739459,0.011291302859604278,0.0071499689010168024,0.030838290118966563,0.008723706780364026,0.008234295583867927,0.014819376953521335,False
190,1.205000025033948,0.9690459270673687,0.355941772460938,-0.642669677734375,0.593338012695312,0.0993052823074197,0.161816597310414,0.0854853404626715,-0.16815185546875,-1.04373168945312,0.292892456054688,-0.225291177679689,-0.0969728858247283,-0.136067824310982,0.0306488037109376,-0.8653991699218745,0.43553009033203127,-0.032276740095044235,-0.009575741910321619,0.0032127576442389284,0.1516309679025975,0.10985876822915468,0.08788639619155333,0.09240890551961708,0.08618565863525571,0.06529565917283418,False
191,5.062999916076661,1.089995365727928,0.16566467285156197,-0.7006988525390621,0.36749267578125,0.0723812563189366,0.16588084744998402,0.12813986006192601,-0.126602172851562,-1.15576171875,0.123489379882812,-0.17131529397039902,-0.09780459103316,-0.12257651654474999,0.007608032226562494,-0.9913162231445304,0.2578933715820312,-0.042951382165965245,0.039001328373938014,0.015985917390920618,0.09256997865110908,0.14391115329245963,0.06892483320109977,0.0750231028166943,0.09878481801919978,0.08786249637083443,False
192,6.2310001373291035,0.056656875662169065,0.100311279296875,-0.873504638671875,0.279220581054688,0.139792255095458,0.165576448137387,0.032466330533047004,-0.14955139160156197,-1.06854248046875,0.0139312744140625,-0.25403307742826,-0.0685183411577766,-0.261086459575335,-0.0389175415039061,-0.9495895385742186,0.1453750610351565,-0.04703552611887801,0.030929686584071227,-0.07093151131633005,0.08439512107633867,0.06005405610904056,0.08886845936231884,0.11914664603402007,0.08392375931878494,0.08919392129688276,False
193,5.445999884605405,0.9629837817367665,0.274154663085938,-0.9290313720703121,0.0191192626953125,0.0425115078487169,0.311174927041437,0.24257642473484803,-0.144195556640625,-1.2028503417968799,-0.20050048828125,-0.17313796142044902,-0.24031433570493502,-0.228793767145361,0.01352996826171885,-1.0563995361328127,-0.0482940673828125,-0.06675527525292231,0.03329468015850538,-0.05280063072023801,0.12358164636036599,0.08255007320959308,0.062170019788748414,0.0638683801885781,0.16741282692043571,0.13338759804913544,False
194,1.831000030040741,1.2556224533556493,0.0285797119140625,-0.9482879638671879,0.187713623046875,0.0360477495669855,0.0127959564056127,0.0265674287185215,-0.106369018554688,-1.00442504882812,-0.0716400146484375,-0.0236770999874585,-0.0296297976560036,-0.0384757535328108,-0.00406188964843755,-0.9787139892578122,0.1027206420898437,-0.009703041010427394,-0.0012133095610292037,0.0002236522683448573,0.04145227274733782,0.01962839181794125,0.09242967289299334,0.016910068326388694,0.012376782618237625,0.017726333516042452,False
195,0.2259999990463259,0.2203129128310215,0.02032470703125,-0.9384613037109379,0.25860595703125,-0.0137536291336052,8.84169481906307e-05,0.00624005275016466,-0.0070648193359375,-0.993194580078125,0.098663330078125,-0.0255815264829741,-0.0169273182046526,-0.0129352397306239,0.0094024658203125,-0.9640655517578127,0.18396148681640606,-0.01897712666407574,-0.008067647048231538,-0.002839009616857173,0.008304211275600085,0.018626325745730227,0.06621346681806217,0.003754183103869201,0.005014230631979174,0.005763723502680962,False
196,0.2960000097751619,0.3280650470777131,0.018829345703125,-0.9410400390625,0.277587890625,-0.0054381749459418,0.00329379763621,0.00424135035206019,-0.0017852783203125,-0.9920806884765621,0.09906005859375,-0.017174193237703,-0.0169760540526011,-0.00443602742774499,0.00888519287109375,-0.9627304077148438,0.21263275146484356,-0.012291154220988216,-0.006727917230256274,-0.0004283428297283449,0.005817204400429449,0.014931806463336885,0.059762672990831,0.004519730255882868,0.005369235031157904,0.0034746717422396867,False
197,0.6379999876022322,0.41381154397400827,0.0258331298828125,-0.944427490234375,0.30584716796875,0.0022612900815862803,0.004335626254649,0.0398235793604999,-0.064239501953125,-1.00859069824219,0.0408935546875,-0.0742228322127264,-0.0261037723727387,-0.0159398180724513,0.00478668212890625,-0.980067443847657,0.14049530029296878,-0.017998281805417116,-0.0083921532270577,0.003249269582783876,0.0255483888187464,0.020206597072224573,0.08784065334484473,0.02109110917455821,0.010545485591280608,0.01615237337716564,False
198,0.0540000021457672,0.11384200028973611,0.051605224609375,-0.920135498046875,0.391159057617188,0.00641901717541799,0.00224371321839176,0.0009100021444800759,0.0048065185546875,-0.9821929931640621,0.16973876953125,-0.0180112247683149,-0.0213183382099753,-0.0148822768035808,0.01255035400390625,-0.9565902709960936,0.2391815185546875,-0.00862233024007324,-0.008454444564954647,-0.004864423520695133,0.014333057155352222,0.018605845528786916,0.07827703596800063,0.00858670459127073,0.0070882265547395126,0.005847243228275167,False
199,1.6669999957084651,1.3866349654245822,0.18836975097656197,-0.8467864990234379,0.464324951171875,0.0507089840000898,0.0779355450884058,0.0220219453699742,-0.0100555419921875,-0.9453887939453121,0.364166259765625,-0.102657669487611,-0.0756502865570089,-0.0591272362058302,0.07311706542968745,-0.9069091796875,0.40634155273437517,-0.004592754457896097,-0.0010362626117607567,-0.015077965880479827,0.06735870595077309,0.030575323615296166,0.03839077837349329,0.04641805089392902,0.05019043862510022,0.030207694796703967,False
200,5.76699981689453,0.9421376615502458,0.14622497558593803,-0.72705078125,0.43310546875,0.266625302010482,0.240837114226918,0.0711894917311261,-0.21992492675781197,-1.4046325683593797,0.14598083496093803,-0.166473933424744,-0.193200352860343,-0.22953652277338396,0.02269897460937515,-1.0139984130859387,0.30449676513671886,-0.024640764827903668,0.026431953713869104,-0.013648167954438028,0.10626811849117034,0.21979136208483913,0.07531399163653137,0.1221302342107545,0.13753064039981472,0.08815401360440128,False
201,7.5439999103546125,0.31560172328756686,0.415695190429688,-0.89208984375,0.416763305664062,0.16774479389693,0.158348362622803,0.218886275258049,-0.39398193359375,-1.4462890625,0.1112060546875,-0.19400915488339998,-0.292883271410336,-0.149028630388071,0.00497589111328125,-1.092076110839845,0.2743194580078125,-0.006298162925150136,-0.02708605270920349,-0.013642122578763557,0.2453475345648194,0.18936464600071123,0.11123371554920153,0.1474100229737728,0.12207526853475296,0.1083554969379676,False
202,7.416999816894531,0.7660003083695986,0.48590087890625,-0.736358642578125,0.255569458007812,0.136254778219506,0.240860283728401,0.15858724817258402,-0.16731262207031197,-1.19178771972656,-0.0736083984375,-0.23821842792704298,-0.23198529939571202,-0.0969523794843347,0.10259246826171871,-1.0430709838867183,0.0565155029296875,-0.023038553852890237,0.031526527615968844,-0.01897598150480696,0.19180889894365893,0.13447962408859937,0.0953782257888725,0.1115477627556236,0.13633433312529847,0.07214169994343822,False
203,3.9179999649524704,1.6765493076967966,0.121856689453125,-0.897674560546875,0.116744995117188,0.00044767737924232,0.0470303595863633,0.055220645202792996,-0.0684661865234375,-1.21775817871094,-0.156463623046875,-0.039627304388161005,-0.12444925142329401,-0.0769866607920106,0.04219818115234375,-1.0289031982421881,-0.0067642211914062,-0.019916956212764694,-0.005084320731903,-0.010319829118889732,0.06304731331985661,0.08448539752947844,0.08236559186406685,0.01349610663192016,0.05222791711286859,0.04123507517537493,False
204,0.2200000047683716,0.28401878487781845,0.0802001953125,-0.9426727294921879,0.27606201171875,-0.00862837561574772,0.0033278860981630198,0.00201974137071609,0.0577545166015625,-0.96807861328125,0.17881774902343803,-0.0211827833104903,-0.0127083384057491,-0.00979643806985648,0.06749420166015625,-0.9555511474609375,0.23134002685546878,-0.015950737032920582,-0.0026624154049740144,-0.0031418376644100814,0.007235498495187947,0.008904331113959307,0.030421686580531827,0.003483980208376123,0.004859542442255745,0.003951719825945433,False
205,0.7509999990463261,0.793031452819548,0.1058349609375,-0.91357421875,0.40191650390625,0.0157494020545106,0.0641776548970565,0.0642743276446264,-0.0724639892578125,-0.9868927001953121,0.282470703125,-0.0561226578640028,-0.0543418020430669,-0.0657792799766302,0.0290740966796875,-0.9354049682617187,0.36355743408203123,-0.0167209498517824,-0.0014869227314239486,-0.0007004646299126401,0.06039117127525528,0.025203899619322206,0.03674954770447848,0.022179876021502586,0.03061906774024111,0.03384298932819438,False
206,3.594999980926514,1.0302238478101506,0.251296997070312,-0.534164428710938,0.6053466796875,0.079185100271871,0.226538069702064,0.065774219970559,0.0073089599609375,-1.22772216796875,0.264129638671875,-0.21425344022574697,-0.0149959937821272,-0.16004532886940198,0.095977783203125,-0.9238891601562506,0.3957351684570312,-0.042472066432972765,0.0776040081643019,-0.02888978508390328,0.06595476128407256,0.17884951527238865,0.09786642120240535,0.10033917470213226,0.08495519491806978,0.07054972427713964,False
207,7.111000156402589,1.1919772803234354,0.34857177734375,-0.626754760742188,1.11759948730469,0.170191439990386,0.31371291956028197,0.303620604293318,-0.567962646484375,-1.065185546875,0.25042724609375,-0.287075449705091,-0.499598367854505,-0.12179807455812,-0.11867828369140634,-0.8800094604492188,0.4386108398437504,-0.02820255636460827,-0.13872693739620487,0.07043938577849443,0.28083516529015423,0.12173509028951791,0.24494275203607235,0.12079572587957715,0.22320875478617247,0.11298000963836294,False
208,9.712999725341799,0.48300090414299496,0.321762084960938,-0.556350708007812,0.400619506835938,0.504513497962355,0.11264345831097301,0.16550667331682697,-0.261642456054688,-1.39080810546875,0.068878173828125,-0.317199263743305,-0.21841835785452202,-0.187209305672101,0.03700714111328125,-0.86905517578125,0.19905853271484386,-0.03142285075473213,-0.10094658848723555,0.05410246375590146,0.1831806249096408,0.21683516073632803,0.11191532650661498,0.26110672860065887,0.12288421599132127,0.11667831606648875,False
209,10.433000087738062,0.14727526260544688,0.281341552734375,-0.8926849365234379,0.638076782226562,0.33884410550292404,0.490995025953004,0.174272201728714,-0.631668090820312,-1.38725280761719,-0.232757568359375,-0.33981802351356605,-0.250439940485525,-0.482770119242403,-0.09342803955078116,-1.1011260986328137,0.1465423583984375,0.003974927716608697,0.1449401987458033,-0.11740364570660189,0.34369164273514125,0.1693318532424051,0.3126389049727572,0.2490340685755184,0.24553344343906458,0.245766107273028,False
210,9.705000019073475,0.7050808468359087,0.536407470703125,-0.601409912109375,0.17076110839843803,0.19772453092017003,0.379107372759396,0.12479040235893302,-0.335403442382812,-1.27642822265625,-0.350723266601562,-0.288559096748375,-0.33530183493700894,-0.31092538884729604,0.13650512695312508,-1.075851440429687,-0.10122375488281246,-0.005005943901021981,0.063951499257287,-0.06589507422082683,0.2581137219401786,0.20418202248086287,0.1741271962672348,0.15733155238071433,0.20731904153069772,0.124381685687536,False
211,6.1479999065399165,1.5196623039537243,0.115402221679688,-0.9542999267578121,0.102920532226562,0.0362261813600209,0.0543812168272,0.0849697524756321,0.008941650390625,-1.03898620605469,-0.128555297851562,-0.185850827200052,-0.17355740929213698,-0.0852078390770852,0.04656372070312505,-0.9930587768554686,-0.0267822265625,-0.039229055278750646,-0.022508664690797132,-0.0016230102631269935,0.04109654580542504,0.029305655832470395,0.0748633284474228,0.0754985330711247,0.06592950841246935,0.04736407928038476,False
212,2.4139999806880947,0.8517980530273969,0.104141235351562,-0.9724273681640621,0.120223999023438,0.0124372286067791,0.0311155752281588,0.0106004464029514,0.028076171875,-1.03379821777344,-0.0586090087890625,-0.0412489031759103,-0.0277360238048482,-0.0170793847028962,0.06693115234374995,-1.0002975463867194,0.0365646362304688,-0.011519876137690347,-0.0038609444219532664,-0.00074770910765065,0.023544925405075738,0.022457224140414844,0.06483310220820537,0.016069207894881966,0.015005538323751864,0.008561318103081398,False
213,0.556000003218651,0.3161645262611734,0.0900115966796875,-0.95074462890625,0.200958251953125,-0.00415506393274163,0.0022021679053865198,0.00204157929165474,0.07220458984375,-0.9866180419921879,0.0802459716796875,-0.0181337301784585,-0.0084326332756269,-0.0118878184738957,0.0806304931640625,-0.9703811645507813,0.15833892822265624,-0.011557506603893156,-0.0026913107028013776,-0.005122590356767415,0.006694615051648823,0.012951180703567643,0.048247433887438934,0.003846045479773851,0.0038831661412454806,0.004906734697100289,False
214,0.6310000002384184,0.17514754971363203,0.121994018554688,-0.9562225341796879,0.170684814453125,0.00101280016255713,4.68716351853946e-05,0.0032117722746355603,0.07012939453125,-0.9853668212890621,0.101791381835938,-0.0233295574652031,-0.0126151277675963,-0.019326027398487,0.09609069824218759,-0.9693466186523437,0.14371337890625,-0.013110795309681891,-0.005234869228325153,-0.009716649763597696,0.014796130932154612,0.010401062030840545,0.02432552198272463,0.007215655233540166,0.004423164202174253,0.007628492279377156,False
215,0.6109999954700468,0.25856225226821833,0.114654541015625,-0.960906982421875,0.1607666015625,0.00331536924103964,0.0063598949992182295,0.0116491992402246,0.0898590087890625,-0.98675537109375,0.0948944091796875,-0.0182415882026068,-0.016939568745667002,-0.015023424341354999,0.10169372558593741,-0.9743194580078125,0.1160446166992187,-0.011868190976661827,-0.007900826637548968,-0.000847471122085017,0.007857070385881895,0.0068430182705926665,0.02449203802338957,0.005817571914324143,0.007449020666556962,0.006942998197667133,False
216,0.23400000035762752,0.36999099378750866,0.130752563476562,-0.92919921875,0.297927856445312,-0.00413509022456603,0.0458484486945862,0.00633566023329851,0.111709594726562,-0.978118896484375,0.135833740234375,-0.0292305898086007,-0.0105796737464488,-0.0428649093253704,0.12233886718749971,-0.9532211303710938,0.2167160034179688,-0.013636529940474434,0.017957082703353593,-0.013087146439201992,0.0057285873886060565,0.015957934495903808,0.05363132715560876,0.006842256730937967,0.019075458833616724,0.015311115292976157,False
217,1.0439999997615819,0.24414021686380713,0.12554931640625,-0.962432861328125,0.13018798828125,-0.00622993273802236,0.0448170064043985,0.00823023303278088,0.108749389648438,-0.9898223876953121,0.099761962890625,-0.0218919831087784,-0.00204450876885383,-0.009935721394867621,0.1163375854492188,-0.9745315551757813,0.11492462158203139,-0.015837819002701214,0.017441574611146947,-0.00042040660967990933,0.005603506445918659,0.009427655578732475,0.013145765439815184,0.0045633208592506325,0.01473006553360351,0.00472094118167346,False
218,0.1720000028610228,0.2220510488761231,0.12200927734375,-0.9515533447265621,0.18864440917968803,-0.0117759657081124,8.255799379245641e-05,0.00198698448930812,0.108657836914062,-0.9788055419921879,0.129608154296875,-0.0181403880811837,-0.00843316590784491,-0.00230443329124556,0.11818695068359371,-0.96697998046875,0.1614517211914065,-0.015044276892690323,-0.0046889478364698116,-0.00046179213301974,0.003881963425201691,0.008650063232587303,0.018742641756303663,0.0023902131923483876,0.0025146931652036708,0.001508758696790023,False
219,0.0490000009536743,0.15495160836403352,0.13786315917968803,-0.9467926025390621,0.245330810546875,-0.00850187546396896,0.0181712807498287,0.000915594782769242,0.118408203125,-0.974395751953125,0.15763854980468803,-0.020099409379046,-0.0073489930280736596,-0.00654418574665171,0.12448577880859371,-0.9573837280273437,0.1985778808593751,-0.014945074142084855,0.00403250525937619,-0.002935575837983443,0.006552852176960001,0.00912381581624594,0.032620317152869165,0.003645455694565391,0.008718622512800957,0.002281681328501321,False
220,0.40100000202655767,0.14639748270008543,0.129287719726562,-0.9586181640625,0.2052001953125,-0.0116028602372572,0.0128809112443863,0.00519396307398154,0.103240966796875,-0.9759063720703121,0.138397216796875,-0.0223220836248262,-0.00522165994931836,-0.007642473380200391,0.12219085693359391,-0.9673812866210938,0.15653839111328122,-0.015828284885998762,0.0018046112178594965,-0.0018726549837110168,0.007903933104825296,0.006209292105552847,0.021879302145328433,0.0033268503882691804,0.006021369122852487,0.0033595251682229377,False
221,0.0,0.0,0.234100341796875,-0.880615234375,0.24346923828125,0.0650572970051097,0.10113167818299601,0.0698709606754279,0.01751708984375,-1.03639221191406,0.084503173828125,-0.17654654129964198,-0.06530443835426901,-0.0418592996977565,0.13552638462611602,-0.9608677455357133,0.1622728620256697,-0.04867535614654683,0.013994150625197809,0.00708134533852068,0.0641000869949002,0.05253362921295459,0.05507028018423171,0.07685611326739954,0.05359958208150971,0.042028041645425715,False
222,9.861000251770022,0.2792229861409502,0.132553100585938,-0.9312286376953121,0.261184692382812,0.0717386355479005,0.116498650304971,0.0964996420990212,-0.044586181640625,-1.04115295410156,0.15449523925781197,-0.0880054898022135,-0.134136499888457,-0.11955143186252902,0.04724884033203125,-0.9727218627929686,0.1979202270507813,-0.009258346371605958,0.0009074721414445069,-0.023233976613680152,0.06590674514744913,0.03437234837155919,0.029350470553945306,0.049291687005449704,0.0793923959852363,0.06930309817220479,False
223,8.433999824523926,0.6661531158486651,0.16534423828125,-0.89324951171875,0.222381591796875,0.0385889378791392,0.0565700689271362,0.0827494750748331,0.00250244140625,-1.03887939453125,0.020416259765625,-0.0596356336579264,-0.0991636021374275,-0.0492082927258301,0.070452880859375,-0.974481201171875,0.0909133911132812,-0.021934487159776025,0.0048221857858064664,-0.005354844635433208,0.048408258021791294,0.04478219229185272,0.07229396814472432,0.026575780973790257,0.04683354428962933,0.0377174093369845,False
224,5.2229999542236305,1.1032482351348627,0.106002807617188,-0.9218597412109379,0.329635620117188,0.011965849093835,0.039524772686193,0.0354203088141629,0.0077972412109375,-1.03678894042969,0.0150299072265625,-0.0363127340954484,-0.0436846303088968,-0.0440910286912429,0.0495071411132813,-0.9785385131835943,0.1488113403320313,-0.012526471134907605,-0.009704798696746854,-0.000423069770769986,0.027968509159569725,0.03815383459469216,0.12403905601020189,0.014002464155937453,0.024210946315498312,0.024217336963000474,False
225,4.555999946594234,0.843513843743618,0.19667053222656197,-0.8236236572265621,0.538787841796875,0.121950407372472,0.109223160522984,0.12362287253704199,0.020660400390625,-0.956512451171875,0.330490112304688,-0.11383469026656501,-0.178419009862077,-0.103803894020782,0.10395507812500004,-0.8986557006835938,0.4279724121093749,-0.008747498811307004,-0.022275504937360725,0.03547285298247007,0.0574819099247617,0.04138875398351753,0.06883512627922614,0.07384323823935306,0.07813940950864594,0.06036562558042354,False
226,7.808000087738039,0.86238457739119,0.238067626953125,-0.83343505859375,0.464096069335938,0.0643813867204476,0.172284950923297,0.040299486247297005,0.023712158203125,-1.14030456542969,0.31890869140625,-0.0758929005323151,-0.0818514571552584,-0.144360907945489,0.10581207275390614,-0.9369049072265627,0.4005401611328126,0.0005531918216312535,0.037115730427329116,-0.027811684211417404,0.07254308314365726,0.09751460372671447,0.040930575161431657,0.042578061381314376,0.08014097718208775,0.06566661171080555,False
227,10.498000240325942,0.7458148943960737,0.137847900390625,-0.89459228515625,0.4486083984375,0.0279061997985043,0.12910232647988001,0.0632998770017664,-0.0845489501953125,-0.9669952392578121,0.27978515625,-0.0619943954354095,-0.175541730620355,-0.103316535541297,-0.0064483642578125,-0.9414749145507812,0.37553405761718733,-0.008452686878635192,-0.022925369506561856,-0.025083408832685707,0.07847568403872325,0.024607979948963958,0.05573967627705486,0.03096908977859397,0.0961073303507513,0.0567250013096114,False
228,12.084999942779566,0.43770219544666883,0.155914306640625,-0.8593902587890621,0.396316528320312,0.0364845079857585,0.0873668637728125,0.0320604647829189,-0.046234130859375,-0.9774322509765621,0.17240905761718803,-0.0855508542254874,-0.0650082948410522,-0.0721831171338347,0.06259460449218746,-0.93123779296875,0.2660675048828125,-0.019483766429852414,0.0027824973385256954,-0.022064049946808394,0.0601995625461237,0.039614247262353186,0.07416165920908323,0.038004482643498996,0.04620731159763077,0.03710891602417828,False
229,11.54499998092653,0.8296081902257545,0.160675048828125,-0.968505859375,0.1688232421875,0.0616505813386803,0.110908941493004,0.0373495027078163,-0.0226287841796875,-1.04841613769531,-0.0053253173828125,-0.0510946097259332,-0.0488450375531433,-0.0689854596129766,0.0586151123046875,-0.999440002441407,0.05165710449218754,-0.01272847190359013,0.017313476562714154,-0.009770924986613519,0.06797509576386429,0.025423233833607874,0.05950121928811422,0.032802762154180876,0.057149535552010085,0.03168033798920432,False
230,7.825000000000005,1.4004861390287755,0.114791870117188,-0.98297119140625,0.08050537109375,0.0223593678800873,0.0385652357454375,0.0221854634609051,0.001922607421875,-1.02241516113281,-0.0090789794921875,-0.0427804871188149,-0.0084763091175042,-0.0431860865528339,0.055470275878906294,-1.0043685913085934,0.04040679931640625,-0.0093741672474135,0.005699217995991375,0.0033012012240404205,0.03163458115770821,0.014083997405030675,0.02860695958418889,0.017914343535278664,0.012774315343775267,0.019750328513397624,False
