meanSpeed,sdSpeed,maxAccelX,maxAccelY,maxAccelZ,maxGyroX,maxGyroY,maxGyroZ,minAccelX,minAccelY,minAccelZ,minGyroX,minGyroY,minGyroZ,meanAccelX,meanAccelY,meanAccelZ,meanGyroX,meanGyroY,meanGyroZ,sdAccelX,sdAccelY,sdAccelZ,sdGyroX,sdGyroY,sdGyroZ,condition
1.4480000066757208,1.8735928278012428,0.0818328857421875,-0.8925628662109379,0.531356811523438,0.0308785538911417,0.0225630997034783,0.0255317253705897,-0.0128631591796875,-0.97265625,0.2374267578125,-0.10276685909230499,-0.0742979333554666,-0.0267983247850313,0.0221075439453125,-0.927314453125,0.3586224365234376,-0.026105828333100222,-0.011531178593356648,-0.0005360623694998667,0.024823529475632523,0.026781515368764518,0.09291675092478789,0.03068447750607593,0.022975198804827172,0.014997866338609691,0
8.545600070953373,1.6512018991817228,0.382186889648438,-0.82818603515625,0.42852783203125,0.0760034217175534,0.368513850575279,0.0481060103506463,-0.0302734375,-1.04884338378906,0.20672607421875,-0.131830202384448,-0.0906425519136099,-0.24911075678546696,0.05198669433593756,-0.9331115722656249,0.3269854736328125,-0.02113047882668108,0.026896030839104156,-0.02860439541516822,0.08211702378210156,0.04104105103595459,0.052897185555458616,0.05112690531678063,0.09861704004833916,0.06849827171341068,0
12.44560001373292,0.6015817311432615,0.161773681640625,-0.7852935791015621,0.576187133789062,0.0745293620541945,0.22970803034758602,0.159245048961833,-0.280014038085938,-1.2122802734375,0.0986175537109375,-0.20334806187798102,-0.142852493504068,-0.272000892670807,0.00255310058593746,-0.9750024414062501,0.2642199707031249,-0.028433708094582816,0.004567630196172387,0.0009339066784246253,0.111290832800078,0.0963098070705106,0.09620361070375176,0.07567725657091677,0.08889270067364796,0.07467606943656169,0
12.637599945068354,0.13959109282105475,0.17991638183593803,-0.8036041259765621,0.311172485351562,0.0901027291606509,0.12402660775829802,0.10632351072810499,-0.16264343261718803,-1.06941223144531,0.13214111328125,-0.165633972416933,-0.16023547857123402,-0.0757083434687726,-0.012224121093749978,-0.9431848144531252,0.21610595703125007,-0.023337056926832786,-0.05473099640477101,0.03176078459177446,0.10400970194716404,0.07577688188290202,0.047893610008382485,0.06800049893747263,0.08410579512776596,0.04888066827524363,0
12.935199966430662,0.28330087807146637,0.14518737792968803,-0.8829193115234379,0.280197143554688,0.101956725488703,0.148028613398746,0.127699639533736,-0.1234130859375,-1.03375244140625,0.13810729980468803,-0.12075597962357199,-0.22555296641484399,-0.148895738649676,0.00872680664062502,-0.9698773193359373,0.20717773437500003,-0.008532246153040227,-0.055636577701841564,0.026455682479181775,0.07464196800681928,0.03998753003271286,0.03314977454915063,0.05518765685245752,0.09906108577307157,0.06359082756783424,0
12.828399887084961,0.21404222624116856,0.149688720703125,-0.887237548828125,0.288482666015625,0.0591626562483283,0.16283605537569598,0.0610074279354262,-0.0843505859375,-1.05645751953125,0.0880889892578125,-0.18317594820117605,-0.105273958942505,-0.10032926774655498,0.01747009277343752,-0.9701623535156249,0.17916198730468755,-0.018671603497499648,0.023732781359529862,-0.020169290726049692,0.062141384567335825,0.04448654659561644,0.05169008487917366,0.05666360818220777,0.0582165289274657,0.039760033046915284,0
12.975600280761729,0.08352058255209395,0.21234130859375,-0.849334716796875,0.2906494140625,0.0708936145340183,0.17896202840834396,0.113657590054075,-0.14344787597656197,-1.05479431152344,0.110092163085938,-0.12385190439078901,-0.239846151985299,-0.148172424097611,0.04179992675781255,-0.9679156494140628,0.20193176269531246,-0.012882924594170352,-0.04812344872946415,0.00306298679085501,0.09971588239791253,0.05297626135317977,0.04328252279221077,0.04806829038265861,0.11943857436632209,0.07555300864496878,0
12.730000190734847,0.1372346033379985,0.17933654785156197,-0.7766571044921879,0.2762451171875,0.171561636371232,0.155347779022611,0.114932977900114,-0.20173645019531197,-1.0872802734375,0.0652008056640625,-0.13790247598593802,-0.14919640953674598,-0.0953885712922401,-0.04844970703125004,-0.9716107177734375,0.19404235839843753,0.002781650453299081,-0.025163772381739995,0.003974437694968109,0.0790467616976981,0.06968738108306366,0.049251621108315116,0.06571717162316967,0.07912199527730704,0.05051054986306725,0
12.872400016784644,0.08130600289023855,0.24635314941406197,-0.8592681884765621,0.273818969726562,0.0795677965205154,0.126607210854585,0.11169111190516001,-0.0796661376953125,-1.0687255859375,0.129730224609375,-0.112260495746219,-0.131368410251429,-0.0984820992144762,0.08499511718749993,-0.9698590087890628,0.19300781249999993,-0.016562923199019305,0.0031278933529424037,-0.005039584951911833,0.08353898951007356,0.04864182669556946,0.03386209864188148,0.05654542956158807,0.08392578363167787,0.05194466908763103,0
13.443200111389176,0.21730763265377442,0.307449340820312,-0.70355224609375,0.27117919921875,0.16286188803826998,0.253791262401281,0.15102600120563098,-0.197265625,-1.10993957519531,0.099853515625,-0.195622231555661,-0.21395303565478602,-0.244799098980629,0.05678527832031248,-0.9520349121093743,0.19669677734374996,-0.029486647421089612,0.003467478349860623,-0.0036374306379851097,0.13724974721055616,0.09631823384550878,0.049251321951544316,0.07539317494271477,0.13626664798109264,0.09990515760865654,0
14.009199981689456,0.18142777991390044,0.135238647460938,-0.85076904296875,0.28936767578125,0.11885900997910799,0.083988643930047,0.11349966460143301,-0.438690185546875,-1.04536437988281,0.09783935546875,-0.141691088952685,-0.31662615147671996,-0.108927017009767,-0.027817993164062516,-0.9686212158203124,0.19425781249999982,-0.007408445436248603,-0.04743443569223885,0.011135187844550604,0.1296416948705972,0.04181347011361756,0.04965309319481885,0.055887628487852566,0.10073728370079986,0.054709491214860524,0
14.11239997863771,0.11329476135099195,0.284042358398438,-0.759857177734375,0.326614379882812,0.0657246851742835,0.22977487569094698,0.19471675678503503,-0.22404479980468803,-1.2788391113281201,0.0762939453125,-0.12113308323392699,-0.18491898713463298,-0.102993760417179,0.08052001953125006,-0.9721972656249999,0.201234130859375,-0.019813801331101565,-0.004122797072974206,0.01989525144988059,0.10053989129187794,0.09526666988544719,0.05440589212140906,0.04847948033294227,0.10106237122000711,0.07623533512991527,0
14.12920005798341,0.18582953640410496,0.21012878417968803,-0.7575836181640621,0.370635986328125,0.10261425996184301,0.175517229538326,0.104634800280886,-0.121795654296875,-1.1017150878906201,0.006927490234375,-0.0883088238503735,-0.202527808262237,-0.140781353124314,0.041519165039062535,-0.9764392089843744,0.19096374511718753,-0.001394431146765503,0.016047740012465662,-0.01378852719652962,0.0840606840637641,0.07403907651564945,0.07000662842936632,0.04787219250906167,0.0966820960327262,0.06472856473577082,0
13.512399787902805,0.4643391562989937,0.128936767578125,-0.8779144287109379,0.283706665039062,0.0308220948760321,0.10748891002112401,0.0861186401698923,-0.0942840576171875,-1.051025390625,0.118270874023438,-0.078107052662607,-0.11816126177350801,-0.0984778381567321,0.029838256835937483,-0.9753521728515626,0.17240905761718753,-0.020264227092588842,-0.017864527202828998,0.011097850326067676,0.058217870914616804,0.04070943589024118,0.03882952445586071,0.030594360245212452,0.050946129723427956,0.04146443161501601,0
11.262800025939946,1.2413048412674101,0.093902587890625,-0.92572021484375,0.21266174316406197,0.0463203608397482,0.043961865378374,0.0944061311661099,-0.0495452880859375,-1.02903747558594,0.0535736083984375,-0.0780005262190038,-0.0573751425246671,-0.0589637181148994,0.0261444091796875,-0.9848773193359374,0.122969970703125,-0.018991065649221213,0.0002080674496457091,-0.003521561825277936,0.03951035771867664,0.0272261312006812,0.03602468292957547,0.031168244660974127,0.02952936990131463,0.029086896074382664,0
8.16800018310547,0.4125833420224421,0.107131958007812,-0.8851318359375,0.288253784179688,0.0229159685479138,0.0618868037273703,0.0691953167068748,-0.13935852050781197,-1.0426025390625,-0.0737152099609375,-0.0535761432296691,-0.0900830217685843,-0.054851264759599005,0.0201422119140625,-0.9768658447265628,0.12360961914062499,-0.013336269180212364,-0.012678447085674071,-0.0035583560588984754,0.051280522205329734,0.039814331025494865,0.10957314639682289,0.020234930515178558,0.0346583262812311,0.032168405605312776,0
2.7352000308036777,1.9697486097222623,0.0603485107421875,-0.92486572265625,0.370895385742188,0.0195313571185321,0.0298891895461773,0.0202360295429671,-0.0082855224609375,-1.05558776855469,-0.06060791015625,-0.0311661752888703,-0.0426047184868696,-0.0322223849771957,0.0204461669921875,-0.9810406494140625,0.160047607421875,-0.012384806943881934,-0.010003003496647383,0.0030550079602291395,0.01827961135242124,0.035702344721894,0.1435583911388798,0.01162383842863745,0.017906512961238023,0.015240353827532846,0
5.021600008010865,1.6849498486373617,0.090484619140625,-0.906982421875,0.428421020507812,0.0266574435633662,0.0785358215981097,0.0806362567498552,-0.0559539794921875,-1.04573059082031,0.0310821533203125,-0.0835683971100324,-0.0540571101225374,-0.0544089137025369,0.01826171875,-0.9602160644531246,0.23569519042968742,-0.017059506868519824,-0.009717406101347283,0.0024093298802616036,0.03838184100174654,0.040557904268561554,0.130495253246749,0.026742744275536138,0.0355332058504032,0.02862534779148769,0
4.661199989318847,0.5923843493690264,0.105850219726562,-0.908172607421875,0.38189697265625,0.0112899388091729,0.0569431777958563,0.0974117747723733,-0.0542449951171875,-1.00874328613281,0.100814819335938,-0.0883109543792455,-0.107489176337233,-0.05222938266641599,0.03729064941406248,-0.9631195068359374,0.24854003906250013,-0.021970588971513143,-0.016451155654390835,-0.0003530818973226987,0.040116184313620754,0.025802219402164622,0.07964001367351925,0.02538511112673837,0.040923404138548385,0.03511222324296831,0
7.9188002014160235,1.4436855879108823,0.12835693359375,-0.824859619140625,0.421768188476562,0.1195002991696,0.12676140788170098,0.0985241771596994,-0.19830322265625,-1.11335754394531,0.23199462890625,-0.2175248673088,-0.15212695200026902,-0.12438267239604199,5.859375e-05,-0.9556658935546877,0.3221502685546873,-0.02240502511381557,0.007591926582710723,0.0009451771761578382,0.07827839961631837,0.05252293191538352,0.04894145352414355,0.058146937334227225,0.05912416729036688,0.05539408351112403,0
11.916000022888188,0.7841289870655115,0.102462768554688,-0.882537841796875,0.3253173828125,0.0361502812689536,0.10071276294352699,0.0860217011062134,-0.14703369140625,-1.06411743164062,0.069854736328125,-0.13155855995326,-0.150148489626449,-0.0932111707849914,-0.00684387207031248,-0.9525811767578122,0.2165850830078125,-0.02432066884384263,-0.02494627734183532,-0.004449481717572067,0.06857922220044083,0.042544977966638815,0.07322176798585023,0.04183848846209823,0.0564833980621819,0.045319576880151695,0
7.990799980163572,2.573557705299894,0.14338684082031197,-0.8280487060546879,0.122634887695312,0.0695449897580022,0.10467314980058301,0.06590764434117201,-0.058197021484375,-1.06509399414062,-0.0308074951171875,-0.12755156777712698,-0.10673816490983098,-0.0823276303581645,0.04663940429687492,-0.9983367919921871,0.03662597656249998,-0.02034749881355343,0.012597593514979235,-0.009666166881974159,0.05601772728176758,0.045641767980721136,0.044835572840893824,0.041035610315610205,0.04742881085146483,0.03751485447643109,0
1.8259999990463256,2.3728463707959015,0.14239501953125,-0.8149871826171879,0.606582641601562,0.0472162482304508,0.100738329289991,0.0726768671999354,-0.08837890625,-0.96649169921875,0.220184326171875,-0.0839074175167995,-0.147713827757899,-0.0488224006838776,0.03188842773437498,-0.905802001953125,0.43673461914062506,-0.016279115447971722,-0.010231779686929567,0.010436576774756645,0.05725098582811962,0.04187347596972056,0.12471167666952064,0.028758005305401825,0.056036845780484734,0.030707717827435192,0
11.52159992218017,2.6925602809523075,0.0954132080078125,-0.8520355224609379,0.428634643554688,0.0784969394461946,0.0781901432886174,0.0818325487115188,-0.0741729736328125,-1.02230834960938,0.205078125,-0.134250749499221,-0.0807142873697945,-0.100972421149809,0.0199334716796875,-0.9384143066406252,0.30953735351562506,-0.020238799230500773,-0.008463877481535705,-0.004236982767872448,0.0557439062876718,0.04118718207239163,0.06811984701729437,0.05740969056269398,0.05050976694659534,0.05167149918560981,0
15.844000091552738,0.8871443590741177,0.271575927734375,-0.66357421875,0.341171264648438,0.24033297783256602,0.20962699678006103,0.139080924768298,-0.20390319824218803,-1.1649169921875,0.15411376953125,-0.114821657766548,-0.19003465327256602,-0.105173557769409,0.02228210449218742,-0.9497186279296875,0.27133544921874997,-0.0006918359879807624,-0.021906918116171493,0.007427652154030255,0.10737035109212263,0.09592872656493824,0.045649364463383996,0.07588534935322448,0.09609274928792393,0.06446670341728189,0
17.065199813842757,0.41921691919633186,0.24104309082031197,-0.824798583984375,0.273635864257812,0.160994745798015,0.293261972917346,0.165193751888743,-0.291168212890625,-1.09403991699219,-0.002166748046875,-0.17361519988779198,-0.14609675634400301,-0.20949596925442895,-0.02480102539062498,-0.970505981445313,0.18204711914062505,-0.02094769010210243,0.019832976090950166,-0.020950204126171455,0.09884305673987753,0.056398927496689254,0.05377484151928427,0.0696256196451933,0.09593770114049312,0.06989704593697126,0
13.927999839782723,2.214200325196677,0.146697998046875,-0.93438720703125,0.22309875488281197,0.131150829990369,0.12500185734948502,0.0705980036530195,-0.032501220703125,-1.06008911132812,-0.0899658203125,-0.0855529847543595,-0.125446605251528,-0.119365010586224,0.04882202148437503,-0.9983648681640623,0.028000488281249954,-0.006826203853446752,0.0007238791422166255,-0.008132335231109584,0.053966617716720545,0.03645262929383066,0.08109486381787812,0.045630006989973285,0.06176384854877953,0.04465739380890453,0
4.290800085067748,2.292536759678213,0.103958129882812,-0.8461456298828121,0.520797729492188,0.0502003202318846,0.0266941951864092,0.0294782637899781,-0.050811767578125,-1.04823303222656,-0.0626983642578125,-0.0354197761819449,-0.0683998304892681,-0.0344442602746488,0.021386108398437482,-0.958330078125,0.20986938476562492,-0.008795963016824237,-0.0059414378234562614,0.004488672796173669,0.03467413436659359,0.06345768279739811,0.23123878616465812,0.021188986707916132,0.021996221416510472,0.015156867642815557,0
9.75119995117187,2.4902682484223555,0.147216796875,-0.8214111328125,0.502090454101562,0.0485195992679356,0.110502809426767,0.125680164479128,-0.10113525390625,-1.04350280761719,0.285537719726562,-0.14683365301762802,-0.29261562372078304,-0.0973531852283916,0.03603088378906254,-0.9321649169921875,0.38559997558593745,-0.023724046191154383,-0.02763096742616679,-0.005929144671864475,0.0661288847088284,0.05282790793136721,0.050101750917886816,0.0532808671975184,0.0846789897695278,0.0503786097654578,0
14.69600009918214,0.5769390439860178,0.181549072265625,-0.842193603515625,0.370376586914062,0.0917813195957278,0.14284929771076002,0.084327131704596,-0.15069580078125,-1.04621887207031,0.16529846191406197,-0.0961166795342678,-0.168516311664726,-0.0985886256580794,0.03122924804687498,-0.9391503906249997,0.26343200683593726,-0.016124439051859916,-0.009298437598656027,-0.00031168572133850826,0.06794189242438671,0.052698361070245024,0.053481220073766086,0.050508350500532845,0.07779421720657223,0.04759124903821493,0
15.259599952697736,0.1542855111108914,0.19511413574218803,-0.76739501953125,0.289398193359375,0.063186692655438,0.17671964677049695,0.14057575708816,-0.257049560546875,-1.03178405761719,0.134185791015625,-0.10299535831383301,-0.182893653125628,-0.116926886608256,0.010122680664062477,-0.9485742187500003,0.22272033691406243,-0.024722497241758165,-0.0025197871496337666,-0.00020396618156698576,0.08727819022335703,0.06567830626501323,0.04601677602044573,0.04417740203364109,0.08597185478323693,0.05717161334210246,0
14.998799934387195,0.2423724860380455,0.155181884765625,-0.7012176513671879,0.409011840820312,0.15597255661434398,0.0662631763466976,0.139410091479032,-0.134429931640625,-1.13818359375,0.123397827148438,-0.14578197070315602,-0.221799773490595,-0.12747566768606,0.02351379394531252,-0.9621313476562493,0.2347662353515625,-0.00804791302455407,-0.035261754855503896,0.008495664972306888,0.07343272644281064,0.0894313140642662,0.07337354416133361,0.06871430495451289,0.06813064230030934,0.05893180695955618,0
15.28799995422363,0.212269367797877,0.167266845703125,-0.82696533203125,0.290435791015625,0.106434564545562,0.173298550034181,0.165236362466184,-0.0768585205078125,-1.1846008300781201,0.0902252197265625,-0.14875246058303002,-0.13394688281884298,-0.133950078612151,0.04428955078125,-0.9738214111328124,0.195875244140625,-0.010722493749387541,0.004238761759480667,-0.0047694125856454425,0.07131880120312005,0.08025719131826825,0.05841437960634026,0.05886530863636598,0.07715187516908305,0.06504438255837958,0
15.177200164794915,0.13526258481776476,0.21482849121093803,-0.8383331298828121,0.289901733398438,0.0550603229051702,0.16206773340120803,0.10175645577472901,-0.0662384033203125,-1.05966186523438,0.0340576171875,-0.11348554984765599,-0.174443709302915,-0.156727030151163,0.04301818847656252,-0.9704895019531247,0.1713470458984375,-0.016768881425081678,-0.010356500847100138,0.008811238908836951,0.07848752979685908,0.05283946090378925,0.06461897602625301,0.04416536587417272,0.07897334736796846,0.053997410354525724,0
10.45520023345947,2.752140362029885,0.112823486328125,-0.8611602783203121,0.120559692382812,0.0583743605656648,0.0698216921952614,0.0599722572197124,-0.0969390869140625,-1.06283569335938,-0.0915985107421875,-0.0851564400680467,-0.141221839968613,-0.0482990895296771,-0.0003485107421875,-0.9960601806640627,0.033738403320312464,-0.022777707876761283,-0.0355495040849648,0.004592525426042404,0.04342677474864938,0.04555561327551033,0.04958100317983096,0.03505516638448495,0.048833758837001376,0.030152832969211358,0
4.223199987411501,1.020011160255292,0.281845092773438,-0.9389495849609379,0.202239990234375,0.0163251774821857,0.638479555541047,0.0419048397523968,-0.0318450927734375,-1.04301452636719,0.011383056640625,-0.0604401746232393,-0.11807737219917,-0.15774542295200902,0.1570697021484375,-0.9820935058593748,0.11859741210937508,-0.022255280892042605,0.21615605577172115,-0.05456551822727785,0.098112130977114,0.023047675691990194,0.05422424477511422,0.02524519973149957,0.26109146134662414,0.05420227224467355,0
3.2256000518798844,0.6244537021211339,0.255096435546875,-0.8541717529296879,0.354385375976562,0.0188767521225906,0.6800855886191371,0.0325534159006926,0.0078582763671875,-1.00523376464844,0.0517120361328125,-0.150309078240181,0.0320921563998909,-0.18935048718852499,0.1524127197265625,-0.9526348876953125,0.20637451171875,-0.0408266323534673,0.45688323470884046,-0.09725778014550068,0.078744741875422,0.034567782016228746,0.10527648061041306,0.039786188434927504,0.24882521676497993,0.05820732996418509,0
7.649200038909911,1.6112105379781234,0.134597778320312,-0.8788909912109379,0.402359008789062,0.0798982948117943,0.0521841089278847,0.0792748488006067,-0.0811004638671875,-1.04808044433594,0.185150146484375,-0.0850525767855336,-0.154211940817692,-0.0748859593241561,0.01915100097656248,-0.9493768310546876,0.30668212890624996,-0.010497733606029215,-0.038649263804151644,0.011336778486425234,0.04928164644358789,0.038039529904584674,0.04913878311941561,0.04262104430452115,0.04864487527360731,0.035223898152373555,0
8.384400005340575,1.516957096837689,0.295318603515625,-0.881683349609375,0.212554931640625,0.0299496433029221,0.29795472907417403,0.0597208548128089,-0.0267181396484375,-1.07453918457031,0.0128326416015625,-0.0758851773651538,-0.0955765904651997,-0.12006355774015101,0.09692016601562502,-0.9931530761718748,0.104337158203125,-0.024133949293495036,0.0684861062559423,-0.02609826495560439,0.09640292491912456,0.04135025828223778,0.0519916485559793,0.02512472128439594,0.12179736980622996,0.05012885169705246,0
4.920800018310545,0.7152676680421945,0.323944091796875,-0.841796875,0.36663818359375,0.071722123949142,0.46800821732009396,0.0890816731987145,-0.082275390625,-1.06756591796875,0.140380859375,-0.0802996331880692,-0.013545902568579,-0.16006982995143101,0.12948852539062505,-0.950155029296875,0.25211120605468756,-0.02062770597080723,0.24737838114901478,-0.0413230775385912,0.10997190136368618,0.062445095820267554,0.07071934542161744,0.04036083551491569,0.16554452432774688,0.07336702968107207,0
8.032800216674806,0.5431891147980413,0.152984619140625,-0.7493743896484379,0.417373657226562,0.0756047465023685,0.146552955838733,0.0541836102743161,-0.235443115234375,-1.15333557128906,0.16999816894531197,-0.13968013601356602,-0.149962068350144,-0.11700971091815698,-0.02615966796875,-0.9678967285156245,0.26793945312500006,-0.017516143121669155,0.0013886361082334508,-0.011015654522183454,0.09818575684761974,0.07064226466459825,0.07136660797911817,0.05345549388667668,0.07005414126252449,0.042625438158176224,0
7.362000083923339,0.6854562591511968,0.234649658203125,-0.7092742919921879,0.29931640625,0.39242930348029903,0.24697410264289602,0.19519745736179397,-0.449905395507812,-1.23155212402344,-0.0167236328125,-0.19806541553970003,-0.156566175221322,-0.310677182233701,-0.024404907226562415,-0.9761834716796881,0.16129943847656258,0.023872682537913893,0.015368676545072906,-0.03945840671182825,0.14744498252605592,0.1310076125766161,0.07834053457276209,0.13872038724501737,0.11500395251313761,0.1081817403484773,0
4.291200008392335,1.476028807571312,0.2606201171875,-0.812591552734375,0.437362670898438,0.09098183863648598,0.5618540193928511,0.144759316844565,-0.17680358886718803,-1.26277160644531,-0.0372314453125,-0.111277522987871,-0.322814805217846,-0.107353887753857,0.11207092285156246,-0.97702392578125,0.11867309570312484,-0.032456977511298626,0.23486214187901525,-0.03356455425072953,0.10736196571570845,0.0775922428548499,0.0937333172741698,0.04178909450165977,0.2555696154812679,0.06330856050536457,0
0.7240000039339072,0.7218206402054191,0.00213623046875,-0.9394683837890621,0.20135498046875,0.0300425876249659,0.380116710812536,0.0136489669027651,-0.14033508300781197,-1.01585388183594,0.0021514892578125,-0.0581405350219559,-0.0573338635277709,-0.0624572528328653,-0.04577087402343753,-0.9817584228515628,0.12631042480468754,-0.012247963074429295,0.0761117591106978,-0.015845893707126347,0.041653940888757346,0.017875777822371406,0.05986075803724493,0.015927075939017977,0.11679836342686953,0.01983679218263604,0
0.5955999982357018,0.4174933100690237,0.0498809814453125,-0.9113311767578121,0.38568115234375,0.0180549006101922,0.258413711105332,0.0882206732182919,-0.14097595214843803,-1.00006103515625,0.136383056640625,-0.105895807057039,-0.021141770629703,-0.0678312455965362,-0.04074218750000005,-0.95579345703125,0.24118103027343754,-0.019300535620532785,0.08487968436756574,-0.01862758677100284,0.05127745841822012,0.01951146928158722,0.06719670698726168,0.02524713997158772,0.09571589368269867,0.03184305987126143,0
1.09399995803833,0.07602634535468464,0.111236572265625,-0.9328460693359379,0.20091247558593803,-0.0409543575593475,0.36133663143751504,0.0653244120624446,-0.0239105224609375,-0.963653564453125,0.18095397949218803,-0.152225755276711,0.10351760420359801,-0.108892662231705,0.0454010009765625,-0.947198486328125,0.18799133300781284,-0.08072243664273004,0.276235318804033,-0.03565818236272876,0.0524686853399611,0.013406071094006003,0.007625681164189007,0.049339385567835625,0.10012257677269723,0.07568961987236643,0
1.2948000001907343,1.3412094061432611,0.267959594726562,-0.9057464599609379,0.360610961914062,0.0461994533262586,0.462623305595954,0.03734044796011,0.0037994384765625,-0.99530029296875,0.16233825683593803,-0.040700824623571996,-0.0286819786240444,-0.12207717384036001,0.09838562011718749,-0.9497308349609375,0.2793560791015627,-0.002292576898072524,0.16335386976540658,-0.03567274452756927,0.08841217606456347,0.023853407879444895,0.06347320564881767,0.020598705949418754,0.1811249977164626,0.04502957076327141,0
7.623599948883057,2.8294947986832515,0.319076538085938,-0.78857421875,0.50177001953125,0.0605453694862974,0.573805221100691,0.0887527728040897,-0.0020751953125,-0.9928436279296879,0.23103332519531197,-0.0938508620788284,-0.18599490421502501,-0.290156993402422,0.12996826171874998,-0.92427734375,0.37295349121093757,-0.02619585383058926,0.12598164496716976,-0.033859195741091495,0.09457083462277281,0.0486419498236071,0.08258209385931242,0.046434436257694264,0.2012545214580735,0.08689548446767072,0
12.592400016784667,0.49097082223458755,0.14949035644531197,-0.8150177001953121,0.24098205566406197,0.0471778987107537,0.10232317645469699,0.119839585892476,-0.112625122070312,-1.044921875,0.117584228515625,-0.10778292300546902,-0.158484183838397,-0.0976386760972481,0.038129272460937516,-0.9635919189453124,0.17831848144531257,-0.025848524361221127,-0.016553069502985993,0.002806119577394701,0.058008366894133086,0.05056403840891104,0.03272112136127519,0.04280061786807361,0.05274366844024065,0.046440721111381346,0
10.741599807739254,0.37706838084620664,0.17283630371093803,-0.82965087890625,0.286209106445312,0.103153816398693,0.106387160278158,0.0414358570844339,-0.03857421875,-1.08987426757812,0.118087768554688,-0.147374541035023,-0.0657430609858051,-0.0576095007005941,0.049466552734375016,-0.9637567138671871,0.20403930664062503,-0.0032333758373983,0.0026592409169546166,0.0011541927111516231,0.05359629253018277,0.04976833571266813,0.047775582875286146,0.04332875755517383,0.043181256661061936,0.025431023554838554,0
11.112000083923357,0.2920047490135491,0.307846069335938,-0.8779449462890621,0.276077270507812,0.129265311938593,0.126392826386834,0.13828810171178196,-0.039031982421875,-1.05586242675781,0.124862670898438,-0.136373821520233,-0.17181543562311602,-0.0816884716965455,0.09366760253906252,-0.9606915283203123,0.19575317382812493,-0.01899974755437488,-0.007533837713013857,0.00839727714899502,0.0792812835395837,0.039462199157075925,0.044611891954157164,0.06310716399801962,0.06974315721979418,0.05009024568181135,0
11.252000045776363,0.117508883039304,0.135848999023438,-0.905029296875,0.22166442871093803,0.0828733120655218,0.153274508113984,0.0860328863827918,-0.0555267333984375,-1.03201293945312,0.0612945556640625,-0.0546768277081988,-0.0896590465230437,-0.128529480529404,0.0578448486328125,-0.9809460449218744,0.16949157714843735,-0.003782295948641064,0.006447438430571286,-0.012636688719781613,0.05333064926505004,0.03307977562480844,0.04472490831471485,0.03523752258803957,0.05331258170396138,0.04219506810388629,0
10.865999984741217,0.10033282651392669,0.14686584472656197,-0.8462677001953121,0.316192626953125,0.16738793031085902,0.121271034978393,0.0801433056320815,-0.132919311523438,-1.1125793457031201,0.106918334960938,-0.113716978546383,-0.10668303747526599,-0.11443789625346801,0.05761657714843746,-0.9647180175781251,0.1776043701171875,-0.03373050114457451,0.005111895101829656,-0.003898367161591078,0.06610470998081149,0.061080751440240055,0.04519682128354227,0.060530769409921435,0.06320971580643313,0.04737885050494761,0
9.923999977111803,1.2959648049235122,0.160491943359375,-0.8987884521484379,0.2900390625,0.088192976342955,0.11285438066930699,0.06772312125627901,-0.0228118896484375,-1.0657958984375,-0.0860443115234375,-0.108668690384029,-0.135984201052754,-0.0761693366534653,0.07916992187500003,-0.9821929931640632,0.046763305664062484,-0.0056844214729748835,-0.0003452735090065765,0.004292845234897968,0.05226418965381827,0.043420448514121295,0.11874664421761881,0.05038748782600125,0.06543329355994396,0.041707682106630464,0
1.9279999673366564,1.9025465198260145,0.0853271484375,-0.8662109375,0.478118896484375,0.0048296426368587,0.00535135589440522,0.0267487899887559,0.022918701171875,-1.03330993652344,-0.102951049804688,-0.0633278401932122,-0.0413114874615272,-0.0194432064864505,0.060130615234375,-0.9703186035156247,0.17283996582031247,-0.0171856235251016,-0.009418737911417086,0.00244991645527442,0.016772859361331664,0.04288139186989783,0.17327724932194874,0.013773259991787249,0.00990957448587315,0.010829069837518975,0
6.463999938964844,2.6810957593532665,0.144012451171875,-0.8826904296875,0.45819091796875,0.0826626560232965,0.104759436219902,0.0721905739848869,-0.115447998046875,-1.03553771972656,0.230255126953125,-0.0786005364125986,-0.15287316973770998,-0.0687279319355659,0.016304321289062503,-0.9413867187499999,0.3545892333984375,0.0022322403204156982,-0.00865088465328108,0.006442463645655052,0.06668595690204036,0.045740153403598195,0.047234178992298564,0.042105826126069924,0.06250347724973922,0.03963433150866484,0
11.6480001449585,0.36846551544353073,0.12451171875,-0.8686676025390621,0.28863525390625,0.0955635409758583,0.0554518075854119,0.12431076704661001,-0.059661865234375,-1.04066467285156,0.104904174804688,-0.10603695459481301,-0.12356907668302301,-0.0657614367973266,0.018695068359375,-0.9644519042968744,0.20727172851562498,-0.019584588382400635,-0.017741766129220696,0.008204389717562785,0.04390033897538237,0.03914950950232336,0.0515089394970434,0.04376952687804106,0.04760288053001488,0.04726099402952582,0
11.268000030517603,0.17228859326343837,0.17613220214843803,-0.8839569091796879,0.253875732421875,0.0426593132892163,0.18224437445186603,0.0548110510271388,-0.0813751220703125,-1.06637573242188,0.116775512695312,-0.0702544558723993,-0.0925331299714572,-0.12259808814958001,0.02841735839843754,-0.9736273193359376,0.18612365722656235,-0.023484542788001384,0.0014710662702935784,-0.004423798192019348,0.06975221559930389,0.04181480017771109,0.034459772237338766,0.02836739037672597,0.060776655235073494,0.04278677723025692,0
10.820000076293939,0.06089604459347886,0.105087280273438,-0.7993927001953121,0.2496337890625,0.0501182948703102,0.0956974979786893,0.0492495717227263,-0.0933380126953125,-1.06974792480469,0.0962982177734375,-0.130669596781392,-0.0667923464552963,-0.0686925118930678,0.00683105468750002,-0.9578161621093753,0.18705444335937493,-0.030091930673642856,0.019595922796,-0.012812041898596804,0.05487382631816994,0.05595212726147123,0.03625660334570793,0.039978846253814954,0.04247318672423646,0.034809856219815395,0
11.020000076293941,0.046992841311359466,0.17356872558593803,-0.8533782958984379,0.305938720703125,0.101757521039165,0.128590200602258,0.0905075296463429,-0.16691589355468803,-1.20622253417969,0.124710083007812,-0.0998104839662077,-0.12330941847674001,-0.0939938738293656,0.019569091796875,-0.975860595703125,0.18929016113281244,-0.026682551846123413,-0.002974111778956885,0.005790585726669814,0.08280262142167252,0.06952421500124241,0.03880342378130457,0.04620535511527043,0.06594905525170391,0.04711209943849193,0
10.853999900817875,0.09027741838707795,0.129058837890625,-0.912689208984375,0.23272705078125,0.0406949656691738,0.0982882210871184,0.0676144642838038,-0.0636749267578125,-1.03352355957031,0.135345458984375,-0.0876142714380808,-0.14379977990381002,-0.056801231309755,0.02197082519531252,-0.9761627197265622,0.185623779296875,-0.015055552716745713,-0.004071483285090596,0.002244682609028546,0.04661689613319266,0.035741259457746276,0.025510044233942913,0.03597665978713105,0.0430410712580771,0.02832595299835892,0
10.961999893188455,0.07593843122032219,0.0907135009765625,-0.9185028076171879,0.21284484863281197,0.138126980465832,0.104104298591742,0.164635020692044,-0.109390258789062,-1.07011413574219,0.140899658203125,-0.0988722523141728,-0.21901890068033497,-0.0774276802685277,0.00812744140625002,-0.9774841308593757,0.18241210937499994,-0.006743028006281377,-0.029311720348048898,0.01907051307086043,0.05006838449009141,0.03742170446976967,0.019417319740120547,0.05204798400177515,0.06877192888636763,0.05138613027034876,0
10.84599990844728,0.040619957636190286,0.332382202148438,-0.8499755859375,0.271255493164062,0.139920885776109,0.260278722816714,0.0749096614578578,-0.106948852539062,-1.07093811035156,0.113327026367188,-0.116256036329665,-0.171100110554321,-0.155396781186669,0.03701782226562502,-0.9814520263671873,0.1957946777343749,-0.021512887453927775,0.008647475807085747,-0.013804815089756568,0.10396229509641144,0.057231175259274736,0.04344109848566195,0.04820381610694323,0.09844710045559478,0.052208138024378084,0
10.9599998474121,0.12127799048614504,0.250808715820312,-0.815185546875,0.289886474609375,0.14015258079094597,0.128658111210055,0.0825875548805563,-0.18125915527343803,-1.1398010253906201,0.127853393554688,-0.318025642629556,-0.12450437885785799,-0.127161947309648,0.04351806640624994,-0.9749682617187503,0.1915875244140626,-0.01718677401069251,0.011766942918339216,-0.020037911663153912,0.08920921257969801,0.07013911114370008,0.04454667408272168,0.07734855892369855,0.0621819541730039,0.049750085199943214,0
10.88999996185302,0.1112428801472414,0.1458740234375,-0.8961029052734379,0.31353759765625,0.0531007689750899,0.0621049166206478,0.07414133948337,-0.0062408447265625,-1.06990051269531,0.15605163574218803,-0.0777222258850905,-0.0883194764947338,-0.0596974189952162,0.06320861816406247,-0.9731671142578123,0.22645385742187504,-0.015415271211504898,0.0026103239740520624,-0.002041099922658529,0.040952401280375875,0.04678518726275824,0.03531045487420704,0.037060294377240066,0.043067361208736867,0.03895535714207959,0
11.012000083923361,0.08124026743998049,0.10919189453125,-0.9101104736328121,0.263504028320312,0.0627454068628119,0.03945712839450499,0.113784090205853,-0.0456085205078125,-1.03005981445312,0.13861083984375,-0.14275661970482598,-0.12047075507082401,-0.0273900791792469,0.0406939697265625,-0.9689086914062499,0.20618896484374993,-0.024005265349622426,-0.012095694175942915,0.01368887170853883,0.03978656803982097,0.03331213038266935,0.030683686864631892,0.04806141598715483,0.03976519024223364,0.03312314623182031,0
10.94600009918216,0.034520325465197566,0.104385375976562,-0.898956298828125,0.3006591796875,0.0362914288067278,0.10030210350343598,0.0526877126900186,-0.11395263671875,-1.02743530273438,0.16441345214843803,-0.062109976626719,-0.0841689399358453,-0.0882025637228793,0.035188598632812484,-0.9697869873046874,0.21595031738281256,-0.017631873449999648,0.0009637234299891406,-0.012124605452736826,0.04852188343501066,0.03514288152507091,0.026459510246432668,0.030556969117296516,0.046261156207947546,0.029653938879178224,0
10.980000114440918,0.04425313019795377,0.0894622802734375,-0.869049072265625,0.274505615234375,0.0380214182508433,0.0897743613982441,0.0964021704031243,-0.0764923095703125,-1.02220153808594,0.118377685546875,-0.145153198369788,-0.155129133497116,-0.0446641409578279,0.0197747802734375,-0.9669281005859374,0.21878845214843762,-0.02585087859562475,-0.009192443787270884,0.000782617823219406,0.05216986442056861,0.03727338622561136,0.03841162042395017,0.04289849221040864,0.055836681911404965,0.03479636209544177,0
10.946000099182122,0.015275185723461452,0.182830810546875,-0.8348236083984379,0.283523559570312,0.0981966083456197,0.14104953344608498,0.11566481456766699,-0.154266357421875,-1.03248596191406,0.12969970703125,-0.10010502958277,-0.168099793270238,-0.0893213576968216,0.01187133789062504,-0.9525439453125,0.21230957031250003,-0.015647690606158286,-0.009555954623422342,0.0051528758246837695,0.07430697282853994,0.04366699981860005,0.04043627106963397,0.049720591682037435,0.07415984821150245,0.05166119485942121,0
10.899999809265143,0.06922189996714746,0.120391845703125,-0.8785247802734379,0.272918701171875,0.0561684642347522,0.15667589745823401,0.147748981484288,-0.0839080810546875,-1.05335998535156,0.133544921875,-0.10835763316870801,-0.147979078602471,-0.0627472710755749,0.025047607421875017,-0.9727380371093751,0.2088366699218752,-0.018558791993723914,-0.01026123424858582,-0.0003767733783800513,0.04518337541612484,0.03772339676466616,0.03406715450945756,0.04140553444907498,0.054747398588729033,0.0437952683030488,0
10.906000137329096,0.052678486311111467,0.17974853515625,-0.7243804931640621,0.290679931640625,0.0566406426960233,0.0353433434586596,0.117690681208891,-0.04449462890625,-1.0469970703125,0.114898681640625,-0.0649606242575398,-0.251928114902662,-0.0295871870785623,0.0329266357421875,-0.9484106445312499,0.21077819824218746,-0.023071337365909047,-0.03656691684252996,0.01610725633650674,0.0453456023995953,0.057032317117283335,0.03399421091217648,0.030970308035150138,0.05649215801539562,0.03543126013127806,0
10.92800006866456,0.03730477356810394,0.19502258300781197,-0.8531646728515621,0.279922485351562,0.0234707050029773,0.0906396224364108,0.312301710498649,-0.055816650390625,-1.14189147949219,0.116424560546875,-0.13246163787890597,-0.32977657462342197,-0.106498214095615,0.038800048828124975,-0.9537103271484376,0.2118005371093752,-0.031287945666553074,-0.007922733800675956,0.0034531825011290497,0.06248401692661175,0.06348259280977846,0.04187862387676634,0.03989251253614535,0.08317110245047621,0.07785565186315502,0
10.88799991607666,0.04890463471950434,0.139312744140625,-0.8900604248046879,0.302719116210938,0.0932023823533941,0.11127033245292801,0.0538611014663075,-0.0613555908203125,-1.04249572753906,0.15522766113281197,-0.14044286534976502,-0.05747101632391,-0.0809094970776973,0.03829833984375,-0.9552172851562496,0.22655517578124995,-0.013911586544180005,0.012768941299514973,-0.0067432623644573175,0.04806607037088081,0.04468347045333243,0.04150251267468404,0.05563722867944875,0.04536213093324634,0.034333141441982754,0
10.214000129699716,1.182257540392096,0.093353271484375,-0.888671875,0.24436950683593803,0.0489395797718411,0.0837108762283517,0.0730462476431294,-0.05987548828125,-1.05569458007812,-0.04833984375,-0.156196528462019,-0.131339914427765,-0.0743748987109699,0.0240472412109375,-0.9769061279296873,0.10530090332031244,-0.028912714900888835,-0.01997991866725635,0.0007364599152061463,0.04358770325663124,0.04130352000752947,0.09716886281555835,0.04838486733444177,0.05355572668502313,0.03522950939272316,0
5.031999969482423,0.7995675831035977,0.047393798828125,-0.8923187255859379,0.407958984375,0.0485235940095707,0.0851527116425206,0.0487449026961563,-0.052154541015625,-1.01570129394531,0.0749969482421875,-0.10067947342990101,-0.117680827512857,-0.0674951546669682,0.0191412353515625,-0.953905029296875,0.27724365234375,-0.014244076879954232,-0.022032438224669118,0.0016169648874525008,0.0274919280122777,0.03349294360355633,0.1028987384567387,0.03240925660470773,0.042778942819863386,0.026892929046876932,0
8.409999847412111,0.9359486815602583,0.109893798828125,-0.880035400390625,0.3382568359375,0.0496434532479491,0.103383114568549,0.0712222486125341,-0.05731201171875,-1.00177001953125,0.186981201171875,-0.0999950410297502,-0.11879429516462,-0.0785137173610621,0.04681579589843752,-0.9447735595703125,0.2650213623046876,-0.033114032615442976,0.016126750675686082,-0.011767816435176735,0.04835865475162413,0.030279942590395518,0.040745272052946306,0.03346540195293452,0.05115191293842884,0.040248326106350554,0
9.056000137329102,0.6277802910525065,0.075836181640625,-0.9102020263671879,0.272018432617188,0.0439908938342559,0.0598132665026347,0.119935459691718,-0.0821380615234375,-1.03492736816406,0.0738067626953125,-0.0745703747349817,-0.24031726518213398,-0.0410113492066752,-0.008919677734375,-0.9773162841796874,0.1686529541015626,-0.014751100140927844,-0.029558488854655608,0.012719821956369512,0.05261874031953552,0.03227753443338237,0.050527495446473225,0.0343653673564175,0.06452034314792467,0.03974901546428243,0
4.405999946594239,1.784710414207017,0.082244873046875,-0.9439697265625,0.301620483398438,0.0432465403095787,0.0978874153430615,0.0403572768429518,-0.028076171875,-1.03318786621094,0.0512847900390625,-0.0801997646471912,-0.0636980195847332,-0.0461512501105282,0.018184814453125,-0.9852978515625,0.12572082519531252,-0.015369070692914204,-0.00947342858756295,0.00042152513733773863,0.025383492562287214,0.02359957342682585,0.06499011444909021,0.022980201039237147,0.03472592615809701,0.020172930264857537,0
3.617999911308289,1.4069677167080004,0.15130615234375,-0.8842010498046879,0.423049926757812,0.0502549150342313,0.07138709828400999,0.0455232767254875,-0.088592529296875,-1.03193664550781,0.2479248046875,-0.0594585334454361,-0.0722635445987551,-0.0649307968533309,0.023927001953125,-0.9363439941406249,0.3299566650390624,-0.008348370858736789,-0.0076046458400769006,-0.001089413980796533,0.04789377760532077,0.03191496511556007,0.04698917055823853,0.02663390981721272,0.038158079869707845,0.024540039970440703,0
8.00600004196167,1.2435601596008086,0.069671630859375,-0.867523193359375,0.399917602539062,0.15870096515113,0.10459884760617,0.0550001354645344,-0.110626220703125,-1.02383422851562,0.19819641113281197,-0.0845092919231574,-0.111749967765251,-0.0517822379193917,0.001968994140625,-0.9507019042968746,0.3026153564453125,-0.010736864166629617,0.007133585906463682,0.004051221955517259,0.04724358325163555,0.039983414876620965,0.05077762201077279,0.05562614761849644,0.05334347567860884,0.029781528894313018,0
10.147999954223616,0.09451612989530456,0.101852416992188,-0.7939300537109379,0.291275024414062,0.0548134478721199,0.0733863333143325,0.12467934854147698,-0.068572998046875,-1.07868957519531,0.14385986328125,-0.102486694545628,-0.11080694242325399,-0.0787446134275719,0.01651916503906252,-0.9646704101562501,0.22931884765624994,-0.026308271186523666,-0.005869511168735373,0.007976966413114357,0.04752086796045317,0.05317301795541938,0.035145725964317094,0.04170086533011079,0.051872994927624705,0.04378130476856937,0
10.34800014495848,0.14074226429527514,0.20103454589843803,-0.6988525390625,0.309188842773438,0.0989050091955808,0.0746002021391906,0.066043199240657,-0.0816192626953125,-1.02793884277344,0.067840576171875,-0.13199718258479598,-0.159752647465602,-0.0453190122698784,0.02885620117187504,-0.9495697021484378,0.22927368164062506,-0.02323485545683991,-0.011931036252065517,0.010412395272058728,0.06408338451051465,0.061077653395190466,0.05736996996183838,0.050773500989543315,0.053475461413020585,0.030285659890699215,0
11.569999694824219,0.49916592887139016,0.172027587890625,-0.7877655029296879,0.31549072265625,0.09999024733978801,0.19084159108285997,0.134262733724127,-0.23126220703125,-1.05685424804688,0.110626220703125,-0.13433730223464901,-0.19320754339528698,-0.103561280045475,0.00924621582031246,-0.9518090820312501,0.20745117187499995,-0.012424402822969227,-0.01863745111968051,0.019837769780912298,0.08660386409896455,0.069783293416894,0.05751469372655445,0.05161614635324166,0.07704310631009315,0.0516027301254622,0
8.534000015258803,2.4868539399186105,0.0782470703125,-0.8656768798828121,0.0791168212890625,0.0440364338888962,0.10671153329892999,0.0653177541597194,-0.0741119384765625,-1.07737731933594,-0.0778656005859375,-0.14559714732350398,-0.123668146275574,-0.0615997149618598,-0.0080413818359375,-1.0078741455078117,-0.0094061279296875,-0.017461974425096966,-0.016351755829864742,0.006388646486346706,0.04342731610019451,0.04509013014520691,0.041503842456619006,0.037783975784827076,0.05094489495034615,0.032336237577323707,0
0.7659999728202816,1.1387785406327406,-0.0069122314453125,-0.954742431640625,0.227142333984375,-0.00753834378157829,0.005373193815343871,0.007230482359565129,-0.0329437255859375,-1.02287292480469,-0.0182342529296875,-0.0267780847607467,-0.0137155459300171,-0.007716509258504591,-0.02522705078125,-0.9808789062500003,0.14593505859375,-0.017936762784236275,-0.006052885788753892,4.5220475309546256e-05,0.006152598625534912,0.017651897240433086,0.07095051052118574,0.0046750144417388615,0.004296175853147432,0.003347024740319,0
0.0,0.0,-0.02508544921875,-0.9683685302734379,0.190643310546875,-0.0138987714130145,-0.00308021211678565,0.0009235842660394801,-0.0282745361328125,-0.9737091064453121,0.1820068359375,-0.0213505624591653,-0.00948325032566316,-0.00122478778532744,-0.02644775390625,-0.9713092041015625,0.1872467041015625,-0.018023592488417225,-0.00635016913491726,2.4501082028730893e-06,0.0009916796460858334,0.0014252920596172143,0.002164763674717197,0.0018272231982586935,0.0014408307446444539,0.0007265564464704908,0
0.0,0.0,-0.024749755859375,-0.96783447265625,0.192169189453125,-0.0106952549377582,-0.00410952387810127,0.00200882241024677,-0.02801513671875,-0.9745635986328121,0.18168640136718803,-0.0224152942629789,-0.00946913557188574,-0.0012847089098542198,-0.02655029296875,-0.9711175537109376,0.18777160644531266,-0.018076035456603065,-0.007115657506005276,0.0003024285733893984,0.0008803717439902625,0.0015272050816546256,0.002921394027002771,0.0027084240767419163,0.0016278932179295482,0.001031208280105599,0
0.0,0.0,-0.0252685546875,-0.9680633544921879,0.19386291503906197,-0.0138974398324695,0.0022450447989368,0.0019433086474308198,-0.0279388427734375,-0.975616455078125,0.1826171875,-0.0234773629057025,-0.0211694675050399,-0.0012711267882948199,-0.0266326904296875,-0.97122314453125,0.1886090087890625,-0.018839446562040812,-0.006685205452693589,0.0002935016574154528,0.0006293518332081889,0.001971028249453419,0.0033029601891996895,0.002255118144369585,0.0038856289454924737,0.0007533433180435108,0
0.0,0.0,-0.024383544921875,-0.9688262939453121,0.191436767578125,-0.0149395347670175,-0.00414387865616329,0.00197340236774872,-0.0281982421875,-0.9743804931640621,0.185546875,-0.0213572203618905,-0.009462211353051529,-0.00125488150564534,-0.026123046875,-0.97131103515625,0.18837280273437484,-0.01773036779975514,-0.00716051579140657,-7.775365118595343e-05,0.0010479244871618738,0.0015103033485053415,0.0016157393329274442,0.001628143472790015,0.0012148138765331277,0.0008085458694694837,0
0.0,0.0,-0.0241241455078125,-0.9635772705078121,0.20060729980468803,-0.008670986193188991,0.0108033792780154,0.0018588864408753101,-0.028778076171875,-0.9791717529296879,0.18150329589843803,-0.0277695796345832,-0.022281869892366003,-0.00125754466673542,-0.026749267578125,-0.9716552734375,0.18816223144531258,-0.019178882421937958,-0.006512803056366224,0.00028958148429085597,0.0010372561472445656,0.0033716543697670078,0.004176662080220939,0.004873694981962258,0.00532300640339363,0.0008497889665188861,0
0.0,0.0,-0.01849365234375,-0.964263916015625,0.19453430175781197,-0.00529835898871264,0.00535322010716828,0.00406717961676901,-0.0306243896484375,-0.97705078125,0.175872802734375,-0.0214171414864172,-0.00948298400955415,-0.0033321471559071398,-0.02691162109375,-0.97091796875,0.18799499511718754,-0.016358775922498184,-0.00585041097739735,1.8205369211781827e-05,0.0025531269229895686,0.0032267376072484606,0.004661033671409171,0.004006386770335811,0.0028863497863103617,0.0015209258831450575,0
0.0,0.0,-0.0227508544921875,-0.9688262939453121,0.19340515136718803,-0.0117519972583017,-0.00413003021849488,0.0009645969468267,-0.0287933349609375,-0.97381591796875,0.18284606933593803,-0.0213345834926248,-0.0116036591855842,-0.00227167640983759,-0.0261395263671875,-0.9712561035156252,0.18927856445312496,-0.017340726026987833,-0.0063971792544793345,-0.00011838283677620253,0.0015696164829725543,0.0013800298864840392,0.0027837013891719433,0.002403808121840211,0.0017761497710643028,0.0008389179823070919,0
0.0,0.0,-0.0218048095703125,-0.9501495361328121,0.20880126953125,-0.00322748492506703,0.0194229664621659,0.0030639668341361603,-0.0318145751953125,-0.9849395751953121,0.172393798828125,-0.0424454614536829,-0.0105325357951544,-0.0078123830577474405,-0.0268096923828125,-0.9714501953125,0.18944885253906257,-0.01771241809400802,-0.005160875960598393,-0.00029597307090704596,0.002079813623998501,0.0062837014933974636,0.006663626508343865,0.008519899848641694,0.00581058893710723,0.0021003730442808555,0
0.0,0.0,-0.022735595703125,-0.9678497314453121,0.19831848144531197,-0.00960655468413383,0.000117711720181502,0.0020439761366358197,-0.028106689453125,-0.9761505126953121,0.178436279296875,-0.0224219521657041,-0.0169012192259699,-0.00123304358470669,-0.0262164306640625,-0.971099853515625,0.18642028808593752,-0.0162778584359372,-0.006106202273777283,0.00019028818620834206,0.0013714129003133402,0.002118985643593949,0.004374316930665301,0.0029857991770595497,0.004126643944879269,0.0008555197477284172,0
0.0,0.0,-0.0242919921875,-0.9647216796875,0.1943359375,-0.0117599867415719,0.00327462287636143,0.0019931097598153,-0.028778076171875,-0.976959228515625,0.177978515625,-0.026618295095342002,-0.0147254166153751,-0.0012929647092334699,-0.0263385009765625,-0.972236328125,0.18811096191406243,-0.018919298784165765,-0.00659964341319152,-4.8725195304089814e-05,0.001034895051235306,0.0034990572622987837,0.004413599746776032,0.004209771858862436,0.003987182705057116,0.0008871826485861137,0
0.0,0.0,-0.0233154296875,-0.969970703125,0.19267272949218803,-0.010687265454488,-0.004129763902385879,0.00198432132821804,-0.0284271240234375,-0.97650146484375,0.18220520019531197,-0.0245221210013406,-0.00944862923149213,-0.00130122050861272,-0.0263763427734375,-0.97142822265625,0.18773010253906253,-0.017389547096091158,-0.006524446396652044,0.0002652828025049724,0.0011013051486549585,0.0013768687797307295,0.0029021997514465927,0.0034283221396728173,0.001275836521717729,0.0009781515769460276,0
2.105999970436095,2.0180910452759324,0.21089172363281197,-0.8862457275390621,0.42388916015625,0.0204615992872968,0.34588150868345796,0.0160383550327842,-0.046112060546875,-1.01362609863281,0.16986083984375,-0.071755413462768,-0.0276374868445153,-0.0806202777833147,0.03424621582031248,-0.9418255615234373,0.31554382324218755,-0.017259755277205056,0.07937817945090173,-0.015137961573517123,0.08227236032801105,0.028623317224068797,0.08215949713134074,0.021253625883185565,0.11445188134362805,0.02774642617182022,0
7.007999992370604,1.4069974120154092,0.287277221679688,-0.821197509765625,0.32598876953125,0.06836174728568,0.39766241502230504,0.0393860219933999,-0.0806121826171875,-1.05747985839844,0.171630859375,-0.094477503883324,-0.0594239123512651,-0.151220678281315,0.12833251953125,-0.9471118164062502,0.2581860351562499,-0.014085075510232121,0.20589190269858063,-0.05023317298709182,0.1143101059863489,0.04594292495188212,0.05144311834966287,0.043258597620191803,0.15409324872815727,0.04791960676719113,0
12.186000061035159,0.9082400739782044,0.24610900878906197,-0.797088623046875,0.33197021484375,0.12655740974220098,0.26198208064992895,0.12866796490608803,-0.24125671386718803,-1.10081481933594,0.131561279296875,-0.21036495871812197,-0.12150299630933901,-0.20425007453919103,0.00649169921875002,-0.9461480712890622,0.23375244140624984,-0.00873434812184415,-0.0026244600331181743,-0.004390157141129481,0.11111446109957115,0.07235424294828899,0.048559176718470536,0.07192438455906694,0.09395957491650407,0.06650945913726683,0
12.094000053405768,1.396850731180165,0.14630126953125,-0.890045166015625,0.20758056640625,0.0653742131748291,0.14144527918407002,0.0809260086764558,-0.21195983886718803,-1.06747436523438,-0.0116424560546875,-0.0925219446948788,-0.122518193316877,-0.117632091664909,0.008974609374999996,-1.0013598632812493,0.07429992675781255,-0.014963396690384611,-0.0008807286777779569,0.003474200168451963,0.1021572389071858,0.0416310625893838,0.05635452390494456,0.04293321472338417,0.07211716623140982,0.04740704351121058,0
3.746000105142593,3.1372866803120982,0.069580078125,-0.9657440185546879,0.2066650390625,0.0241519416098196,0.0948777769951629,0.0460308752292566,-0.0395660400390625,-1.07829284667969,-0.1524658203125,-0.0535489789865503,-0.0551447451117257,-0.0133682697238708,0.00933837890625,-1.0025909423828132,0.044662475585937535,-0.015530223896797089,0.0074624010799335914,0.00276448904323457,0.021351222842334726,0.03125541175732871,0.10988440028054998,0.01453856438512231,0.03191562448586668,0.012661214870687615,0
0.7780000269412989,1.0415013572560337,0.270187377929688,-0.91448974609375,0.34320068359375,0.01841788946677,0.542506420389534,0.0030589068280650103,0.0027923583984375,-0.9821929931640621,0.17633056640625,-0.045676142172058,-0.00837084793833706,-0.19737246102406197,0.09335876464843752,-0.9540869140625,0.26031005859375006,-0.014910921764265698,0.20240766773914118,-0.05402835863540895,0.09076019914728047,0.018202785372294382,0.04794512284978568,0.014857388248614833,0.21866632873061206,0.06192859923575214,0
4.814705862718469,0.6899195358134312,0.2039794921875,-0.8014068603515621,0.399490356445312,0.135826009284003,0.435510195170075,0.22654898866253398,-0.246124267578125,-1.09724426269531,0.03533935546875,-0.0829934206306843,-0.277078741921261,-0.133948747031606,0.01634665096507343,-0.9440953871783087,0.2518714455997242,0.0032914477881893426,0.10810055979524798,-0.01203634453445472,0.12087606874493789,0.07102847554751913,0.07525215634997595,0.06692470477050882,0.2116692207689982,0.08467783017464411,0
1.206799987554551,1.2152870614204865,0.04132080078125,-0.869781494140625,0.433364868164062,0.0277536006680428,0.009794840173202429,0.126247684107424,-0.1898193359375,-1.03506469726562,0.102462768554688,-0.0619328764142287,-0.534656753076526,-0.0217974408900805,-0.033489379882812524,-0.9481530761718747,0.3088665771484374,-0.017902940638392272,-0.11790902846034416,0.029719088121031755,0.07840116761980537,0.0348090303129149,0.10324742979078942,0.020176880257696917,0.17113806113940971,0.04304670540615379,0
6.7464001274108885,1.8106235455492408,0.0775299072265625,-0.900665283203125,0.384414672851562,0.0344336076302885,0.0670059319747207,0.122651351371381,-0.293380737304688,-0.9967041015625,0.11102294921875,-0.0883663481299192,-0.5092344836267391,-0.0395274358472831,-0.031071777343750037,-0.9400439453125,0.27767333984375,-0.02784503231458736,-0.13839600234650717,0.026002391156361496,0.11043170909056706,0.02725358681092661,0.07803110985207201,0.03495941802897654,0.20176576375543714,0.048060908189398475,0
8.15319990158081,0.6948664324830282,0.114089965820312,-0.93829345703125,0.22637939453125,0.02577860040364,0.0459938572901045,0.0702970664498406,-0.0725555419921875,-1.01901245117188,0.0041961669921875,-0.0668437454643348,-0.11291137231663499,-0.029306756215777,0.01640380859374998,-0.986669921875,0.1309454345703124,-0.01598905459468465,-0.022828606211514883,0.007273412516337209,0.04555825947457343,0.019631681910263276,0.06550953137825492,0.028468151882104775,0.04313629496212543,0.022112565093207436,0
3.1907999467849724,1.780484258955123,0.0768280029296875,-0.9537811279296879,0.15037536621093803,0.0345609067303943,0.0406187992619975,0.0321366311900952,-0.0112152099609375,-1.03550720214844,-0.052734375,-0.0539018478309858,-0.0624756286443869,-0.0396291686009241,0.0190130615234375,-0.989827880859375,0.09415710449218748,-0.012465479419622614,-0.0034939927816734356,-0.006132056241639764,0.023542686154128557,0.019547215969327677,0.054917741663106236,0.020907291668361114,0.026452830204734247,0.02024587749239921,0
0.226800000667572,0.2508272930913991,0.0401458740234375,-0.9511566162109379,0.2542724609375,-0.00533431166342871,0.00016564861980292902,0.00631222441570581,0.0097503662109375,-0.9867095947265621,0.144805908203125,-0.0255242685195374,-0.0360522769408387,-0.00340884619530142,0.0221710205078125,-0.96562744140625,0.20921020507812518,-0.01799314723083544,-0.007967219243524653,6.934871478566076e-06,0.006676228821771069,0.008436625823164871,0.03338964021787949,0.004698069492488828,0.007196251446847611,0.0025538210203129253,0
1.8856000280380252,1.0111259708583826,0.0479278564453125,-0.9191131591796879,0.38623046875,0.0359244452085149,0.0862653803459557,0.0279528051175807,-0.0389556884765625,-0.9739227294921879,0.21772766113281197,-0.0493145528533243,-0.0402430272321874,-0.0375055639476949,0.0160284423828125,-0.94883056640625,0.2866833496093749,-0.014010560262931699,-0.004546623181493797,0.0003374225101130364,0.023549735482240944,0.014346867020301163,0.0456369784770558,0.021638534011708777,0.02821422404466809,0.017326021382979104,0
5.845599994659424,0.759067832076441,0.0946807861328125,-0.909820556640625,0.321548461914062,0.0497800734118701,0.109512646133475,0.0798037525930964,-0.0462188720703125,-1.03079223632812,0.14558410644531197,-0.0654913922627926,-0.10077215143583501,-0.0707276995981064,0.020682373046875,-0.9574810791015622,0.22642456054687496,-0.014119462246227225,-0.004247273222324538,0.005325416705387839,0.03943465867075979,0.028992827918851844,0.052046387728847225,0.031079499630446365,0.047391690605013394,0.03410729689258843,0
7.465999908447267,0.5548498433841558,0.17906188964843803,-0.832183837890625,0.358779907226562,0.0658362716239579,0.11162053813627301,0.0800213328541559,-0.147216796875,-1.03614807128906,0.17463684082031197,-0.10523267994560902,-0.12564447812052099,-0.20280983702167604,0.03643005371093752,-0.9545922851562498,0.25954650878906244,-0.018582366295693292,-0.008431546705902168,-0.0007655735922428941,0.07560577289926955,0.04628533353016897,0.05314430283936986,0.043239530770007216,0.052465966346537565,0.05312471609548322,0
10.534400024414062,0.6925800471051613,0.115097045898438,-0.8627471923828121,0.342788696289062,0.0694786770468592,0.16971153836195302,0.0838171363558459,-0.091552734375,-1.1236267089843799,0.126480102539062,-0.139435924141606,-0.151964499173774,-0.0845372551146033,0.019890747070312517,-0.9630041503906255,0.20880859374999997,-0.021985737031793514,-0.003431813296542263,-0.004566394489426543,0.05807427797981403,0.05585952685964707,0.06431786613707309,0.053738816673065924,0.0805033369078705,0.04332615573746355,0
10.837999954223644,0.24827733261841722,0.119979858398438,-0.828033447265625,0.29034423828125,0.14369245451187898,0.164790016667487,0.111785654123858,-0.3900146484375,-1.2806091308593799,0.041168212890625,-0.10425103876780599,-0.339323474499138,-0.0920068893400575,-0.014287719726562483,-0.9617010498046876,0.1975726318359375,-0.025462046423828835,-0.03408425415849189,0.01164092213555664,0.10489875121736905,0.08022935310179832,0.07007465784494145,0.05434392470408167,0.09053809764142652,0.04868911943121584,0
9.887600021362315,0.7475977072055378,0.094329833984375,-0.9229736328125,0.238494873046875,0.0550310281331794,0.0864262352757965,0.0577290766335386,-0.175689697265625,-1.07183837890625,0.03680419921875,-0.09773827832201701,-0.0776125036481792,-0.0791345002111595,-0.00036254882812502,-0.9854406738281247,0.12646850585937497,-0.019138114751971014,0.013823553091186342,-0.010211379872979544,0.07004925867911221,0.04048032735475133,0.05687752107267885,0.04192417031717947,0.05234625125801442,0.03227755142592245,0
4.563200068473815,2.487139920010372,0.21772766113281197,-0.853240966796875,0.280868530273438,0.0512365562120345,0.0785403489719628,0.0754952905815662,-0.081634521484375,-1.07034301757812,-0.0684661865234375,-0.138789574945043,-0.130094886618153,-0.0869207842902242,0.019121093749999978,-0.9934930419921872,0.06600463867187502,-0.00988306537379456,-0.005636239562533177,0.006267994636321765,0.05805714991746902,0.041520329124602344,0.09365362404984719,0.03455385179542662,0.047321471603448025,0.034806474334524724,0
3.403999991416931,2.014960651543002,0.15763854980468803,-0.8848419189453121,0.394393920898438,0.0365311133048349,0.10791821158884499,0.0856299501098628,-0.0362396240234375,-0.976837158203125,0.23724365234375,-0.0759517563924058,-0.115952968597614,-0.0714262467520342,0.026231079101562523,-0.9336077880859375,0.33005554199218745,-0.022568734952344936,0.006400449616297962,-0.0063889767183218996,0.04453274209537161,0.022730883986968892,0.041912655524206685,0.025165954891603826,0.048008589679506906,0.0342397494325813,0
7.818800182342531,0.651155024768718,0.156982421875,-0.8068695068359379,0.347030639648438,0.10848120384328801,0.197127982835992,0.0587962052823334,-0.1046142578125,-1.09375,0.16532897949218803,-0.155770689003716,-0.0965507747919507,-0.0945419523817039,0.0146527099609375,-0.963634033203125,0.2520117187500002,-0.01789376871159804,0.003263831747624398,-0.007313935175483846,0.05937218950259027,0.06430902705957678,0.04823090010036349,0.05798084979453117,0.06751088826807881,0.03835942153720538,0
10.582800178527847,0.6798376895724437,0.13983154296875,-0.864959716796875,0.331497192382812,0.140484943294988,0.0647813935161775,0.11141467578400999,-0.097015380859375,-1.04627990722656,0.12835693359375,-0.12059645627427601,-0.139822082499667,-0.056801497625864006,0.0314581298828125,-0.9536444091796876,0.22429748535156258,-0.006119060015520211,-0.013915091264174536,0.006839679448562546,0.06007667366931007,0.04506775535138792,0.05113093456646391,0.06776462792180664,0.052075804617094004,0.04180277636943518,0
11.500799980163558,0.13070079758342873,0.2392578125,-0.8824462890625,0.277328491210938,0.0795235880464201,0.13836906180892003,0.10990146765262701,-0.0729827880859375,-1.05117797851562,0.130477905273438,-0.0871948235663933,-0.137149334029664,-0.0740792878299711,0.09037963867187504,-0.9548071289062499,0.20542297363281248,-0.01783227099570593,0.02505007670848228,0.003164666281274241,0.06894904213584781,0.04254829955405584,0.03998654908070885,0.04745408570476414,0.07299609128972147,0.04328737754726517,0
11.404399986267087,0.11083337465661591,0.205596923828125,-0.713775634765625,0.377487182617188,0.126325448411255,0.143809899915952,0.15357624426549,-0.293045043945312,-1.09953308105469,0.13987731933593803,-0.16283605537569598,-0.341187154629976,-0.064125989571909,0.01199890136718752,-0.9558032226562498,0.228021240234375,-0.02274614409152163,-0.0012998143595571749,-0.006968001202526937,0.08813788382067819,0.08570842937810644,0.050127850152981976,0.06336143187656701,0.08862776751416736,0.04933380121886309,0
11.596000175476085,0.1361065316285738,0.15802001953125,-0.8483734130859379,0.292465209960938,0.0343763496668518,0.0470151795681499,0.0764548275223218,-0.044189453125,-1.00299072265625,0.12335205078125,-0.0811920584693547,-0.11023516173721401,-0.0606921096623608,0.0260919189453125,-0.9592956542968751,0.19919128417968757,-0.019510946651937765,-0.022423379620048412,0.0033979378874764554,0.0459067571908383,0.03298522499207297,0.03939365348001933,0.029908845963886394,0.0420659768431082,0.03751312765386169,0
11.211599998474114,0.08928789052232577,0.132797241210938,-0.9133148193359379,0.303451538085938,0.0416675520992708,0.111547301206296,0.042245724371927,-0.0261688232421875,-1.0380859375,0.131301879882812,-0.0921421779234335,-0.10431229147287802,-0.081706314875849,0.03519042968750004,-0.9645953369140625,0.2137640380859375,-0.025048031400765104,0.0062454749461440424,-0.012043570787087891,0.04577025039495642,0.03496849166694006,0.039782673436881064,0.034145476199272023,0.04968566163173101,0.03618821210477907,0
11.502000007629402,0.10943033936489732,0.14762878417968803,-0.864501953125,0.274520874023438,0.04143958550996,0.0626564572824032,0.0792823056516589,-0.0770416259765625,-1.064453125,0.08233642578125,-0.0923677476677633,-0.156623965816977,-0.0508631810272054,0.0091351318359375,-0.9684674072265628,0.21174133300781248,-0.020487719571268312,-0.02254372254338692,0.009316397957047515,0.05462056341562637,0.03813336883083939,0.04096938540139373,0.0431109004205231,0.05452370647115061,0.037729969003729324,0
10.742400188446037,1.0601663192639261,0.117935180664062,-0.9249725341796879,0.266265869140625,0.0390768289908417,0.0660794182314821,0.0418126943786801,-0.0433349609375,-1.08061218261719,0.0178985595703125,-0.0955667367691664,-0.06385807556624701,-0.0510381507108236,0.02225341796874998,-0.9923175048828123,0.12040771484375004,-0.030978251989709948,-0.002011581445136089,-0.00346796837150119,0.03967115887674412,0.037461063955277124,0.0657630411780707,0.03318921507101732,0.03644951611424609,0.025130755069882164,0
3.1471999430656425,3.022739449546109,0.0841522216796875,-0.9455413818359379,0.223297119140625,0.0310809541339878,0.0437120608681246,0.0119243037808298,-0.0206756591796875,-1.05937194824219,-0.121231079101562,-0.0695764150588651,-0.0389042561522045,-0.0365300480403989,0.0316192626953125,-1.0007965087890627,0.068997802734375,-0.013227324586339389,-0.00038326083879548057,-0.007896475032327783,0.021591156868526733,0.0338286934822087,0.13354634305719645,0.017213357889135774,0.01810693416148578,0.011799786054991886,0
0.0,0.0,0.03680419921875,-0.9621124267578121,0.210235595703125,-0.0149541821530129,-0.005173190417478921,0.0019542276079001397,0.0319366455078125,-0.9700775146484379,0.19969177246093803,-0.0224152942629789,-0.00839162059483968,-0.00233186385047338,0.034564208984375,-0.9658770751953125,0.2037957763671875,-0.01934535129535664,-0.006852185653041556,-0.00018038122695324707,0.0013263887622246785,0.0020253253464585673,0.0021330195318889794,0.001925924491122768,0.0009716803671377924,0.0010257153578886152,0
0.0,0.0,0.036590576171875,-0.9627532958984379,0.20906066894531197,-0.0128473554146513,-0.00517984832020412,0.000953677986357375,0.0330352783203125,-0.97027587890625,0.19944763183593803,-0.0224219521657041,-0.0084123932513423,-0.00125488150564534,0.0345703125,-0.96493896484375,0.20432861328124996,-0.018109783033936552,-0.0070304363511227395,-0.00029521673315746405,0.0009550059875725822,0.001717491095252973,0.0025877871582651248,0.002614535359275736,0.000901322204458705,0.0006407399323020478,0
0.0,0.0,0.04498291015625,-0.937713623046875,0.353927612304688,0.007529022717763009,0.0042053976773441205,0.000969923269006859,0.0318603515625,-0.9688568115234379,0.197052001953125,-0.0234880155500629,-0.0104981810170924,-0.0031324100741512,0.0350439453125,-0.962674560546875,0.21331420898437498,-0.016443262044919842,-0.006615814127330485,-0.0004498185607587432,0.0025960572957657298,0.0071710000267973485,0.033309428965041785,0.006754611714922972,0.0027990677722436867,0.0011037485688983873,0
3.759600014686585,2.616146167666029,0.106292724609375,-0.8896026611328121,0.508575439453125,0.05848035437705,0.0716044122289605,0.0717743219065075,-0.0571746826171875,-0.9862060546875,0.21734619140625,-0.0793675268065415,-0.10654348783414601,-0.0583027215323417,0.020233154296875,-0.9278466796875,0.3770336914062499,-0.012039405603143009,-0.012300651053435432,0.016967904779665463,0.041180742127876,0.024005532295638614,0.07642671483267656,0.03227952428339883,0.03549843207703892,0.031121829532343923,0
9.118400230407719,1.0462938311852525,0.131072998046875,-0.7433319091796879,0.385421752929688,0.198929344997322,0.0973936652769608,0.130511138696532,-0.331573486328125,-1.09178161621094,0.16168212890625,-0.118486433742606,-0.224716733832559,-0.107897438932342,-0.0251861572265625,-0.96191162109375,0.2725640869140624,-0.01619519391570112,-0.010703372252760775,-0.00832671403275224,0.08889332313183634,0.06806288660592127,0.0514188660329356,0.0699826586360129,0.07614874648496796,0.05803786346857186,0
9.946800079345717,0.42109682221708533,0.13690185546875,-0.88433837890625,0.333023071289062,0.0362701235180072,0.136405246821096,0.059892096070901,-0.0998687744140625,-1.05165100097656,0.0931243896484375,-0.0717599408366211,-0.107590110142547,-0.140453784310234,0.007216796875,-0.9783764648437496,0.2199896240234375,-0.015288664533282526,-0.010367995050364903,-0.0028166337373783223,0.06045291026716638,0.04366845106480131,0.05354631335436579,0.032524374016597316,0.062006856184971544,0.04183613827166961,0
11.074399909973135,0.6101506852637357,0.136505126953125,-0.83416748046875,0.341842651367188,0.05034546251129401,0.108840730590448,0.0703836191852682,-0.136825561523438,-1.05970764160156,0.15644836425781197,-0.0792237161076772,-0.0784633836164596,-0.0407519573165015,0.027061157226562483,-0.9437170410156247,0.23792114257812497,-0.013687753180881022,0.011194906568834505,0.004010528854060851,0.06129269610467857,0.04669948197925675,0.04699235413572796,0.03569565833744064,0.05584541513666268,0.029773462128301835,0
10.775199928283701,0.19487425374700615,0.0805206298828125,-0.895416259765625,0.311431884765625,0.0326173317668545,0.0471496692031989,0.0559215892017019,-0.116775512695312,-1.02825927734375,0.1781005859375,-0.14904514198683,-0.127495108762017,-0.0468580530638352,0.00345397949218752,-0.9629718017578124,0.23751953124999986,-0.02236820957490635,-0.025638741835833367,0.0018842823450303027,0.052750753593678576,0.03358384735417411,0.03791903793820229,0.040129936250738886,0.05052023941901598,0.02925389844113506,0
11.139200019836421,0.06402602074117497,0.23966979980468803,-0.87786865234375,0.311965942382812,0.0531798648594653,0.124302777563339,0.0717077428792555,-0.109466552734375,-1.1952819824218799,0.170684814453125,-0.148082941884984,-0.0819329498846148,-0.0742012606078967,0.02651184082031254,-0.9766223144531252,0.2532916259765626,-0.018384024710348553,0.010201835103632685,-0.011260526858094078,0.07465618626473529,0.059984218431193455,0.034428909368632514,0.04321448588544058,0.04714863077552854,0.03992859358903958,0
11.000800132751472,0.039678074284928457,0.24855041503906197,-0.796722412109375,0.317916870117188,0.0728220094793447,0.24636024401163298,0.160323895519424,-0.120437622070312,-1.07780456542969,0.16302490234375,-0.140406912675049,-0.18288300048126702,-0.13653733961116302,0.043822021484375,-0.9624603271484373,0.23867919921875,-0.02965099641828063,-0.00478521045723181,0.0007323373418387385,0.09370406687870975,0.049185224900992086,0.035136307119701185,0.05133608793080029,0.08608980325778998,0.06339858297138999,0
11.034799842834468,0.0641691539467883,0.158782958984375,-0.9108734130859379,0.293533325195312,0.056396963456280993,0.0966445180623215,0.0550760355556017,-0.0326385498046875,-1.02537536621094,0.16419982910156197,-0.0778439323469071,-0.10508221134402002,-0.0870467518097849,0.04729980468749998,-0.9617138671875004,0.21834594726562492,-0.01892995142852607,0.005823385218655214,-0.00801352628855895,0.057227065943433575,0.03188874096743355,0.038654686378281095,0.037768863523974905,0.05747457720140729,0.0384648247085047,0
11.126400222778328,0.12318276785241256,0.104415893554688,-0.911346435546875,0.31402587890625,0.0417876606644333,0.0821491985651292,0.0460356689192187,-0.104476928710938,-1.0224609375,0.15690612792968803,-0.10229361536659802,-0.11268180783066999,-0.0656498503476523,0.025531005859374983,-0.960184936523437,0.22674377441406246,-0.027751917550233852,-0.005267423709490292,-0.010634140717063091,0.05071882390618013,0.02973254327954452,0.041671205449753564,0.034896356909165815,0.05472433320950829,0.030547040424358372,0
6.582000069618225,3.6117597854415324,0.0464935302734375,-0.8467254638671879,0.574493408203125,0.0222009097952276,0.0490996357533549,0.0540230216605844,-0.03765869140625,-1.06747436523438,-0.16166687011718803,-0.0512743730995136,-0.0617603035755916,-0.0643811204043386,0.0085284423828125,-0.9863922119140623,0.09329589843749997,-0.013273290746754172,-0.009188299908614696,0.006157153871752681,0.022723624438001043,0.05859241351616725,0.2341326437899704,0.02342171435707537,0.02541582285615911,0.024649445702929887,0
7.021999931335451,2.900204024328928,0.2352294921875,-0.78863525390625,0.512771606445312,0.103606021151789,0.0830964849648704,0.040935182799499,-0.1204833984375,-1.08418273925781,0.261123657226562,-0.15684980187741598,-0.0861580549540255,-0.0908915574755323,0.03472595214843754,-0.9362744140624999,0.40587402343749984,0.002278153217608673,0.010321709310619343,-0.017574519612763698,0.07093954136144194,0.064526287570259,0.07956635421070642,0.056361385014002834,0.05098509678966066,0.03855460007726134,0
10.876799964904789,0.2546521057200337,0.14990234375,-0.871368408203125,0.3359375,0.0609389846954111,0.10248802612617301,0.0628194427411161,-0.05108642578125,-1.02885437011719,0.0963287353515625,-0.141243677889551,-0.137606066156612,-0.05182538112905099,0.050560913085937485,-0.9521179199218751,0.23228576660156247,-0.027144620947896502,-0.014032834942289128,0.011699895174735348,0.05519305195198523,0.04103822572693403,0.055706141751534655,0.04596498690532601,0.059004040779828376,0.03621059268861607,0
11.36239982604981,0.16998242116076237,0.14469909667968803,-0.8688201904296879,0.342681884765625,0.0438311041688511,0.0357239091784319,0.0767096920386424,-0.0705718994140625,-1.01934814453125,0.18553161621093803,-0.105746670035994,-0.12401808564281,-0.0313406123402705,0.023275756835937522,-0.9560028076171878,0.24829711914062508,-0.023040625792218248,-0.022356939077173118,0.009204481275398023,0.05216655533297036,0.042637505068265635,0.03968938605225888,0.04408077452053478,0.04275622851153353,0.029821920618092357,0
11.366800003051791,0.03300510243801462,0.0696563720703125,-0.870330810546875,0.338485717773438,0.0626362172581186,0.0489877829875716,0.091215397864086,-0.14714050292968803,-1.01664733886719,0.178955078125,-0.099753758634989,-0.120630544736229,-0.0961992375280603,0.004105224609374979,-0.9564337158203127,0.2400091552734375,-0.028598472544903865,-0.0322768306425213,0.01147620029581305,0.04682518305312906,0.03561569943179792,0.034454527393512,0.045413447268337355,0.03580250784635245,0.04026186513814681,0
11.550400009155299,0.15054003184178846,0.137069702148438,-0.7724761962890621,0.326019287109375,0.0434177815676708,0.0758209951828829,0.0592571984670261,-0.09613037109375,-1.04020690917969,0.15251159667968803,-0.124483872517465,-0.189127314289176,-0.0876289188240763,0.029735717773437517,-0.9476586914062503,0.2163385009765624,-0.03616089130273649,-0.014103994606616039,-0.0017838811719343211,0.057998110808665786,0.05808195693630305,0.03971275339881612,0.04410845962152253,0.05927742142730981,0.04323102781889419,0
11.185199966430657,0.04214263893894463,0.15638732910156197,-0.830780029296875,0.267684936523438,0.0591562646617121,0.115209147705155,0.0873389005813666,-0.0736541748046875,-1.04743957519531,0.054412841796875,-0.12618882824733402,-0.141416517044298,-0.0807992422085681,0.05420349121093748,-0.9597631835937497,0.18738647460937494,-0.024601121011916728,-0.004307705673780617,-0.0007098922201715257,0.061514303043977155,0.04878677255829382,0.0478233764232635,0.04850231731799064,0.054504743235224244,0.03873684946255522,0
11.285999946594224,0.10033294057545203,0.214752197265625,-0.8196258544921879,0.332534790039062,0.0802663436744432,0.19303683476941197,0.10809957285907902,-0.0868072509765625,-1.03028869628906,0.129867553710938,-0.0977188372460595,-0.17432706284717,-0.122242556144054,0.03204040527343748,-0.9419580078125,0.20731140136718756,-0.014298863429899323,0.011281672357149292,-0.010368517029938571,0.08148080632147942,0.06417857165410423,0.05290592399605593,0.04150978777705937,0.07387759089012919,0.06316619428469626,0
11.369600028991721,0.09369626211222959,0.21986389160156197,-0.829376220703125,0.300827026367188,0.0647941766894098,0.146132709018719,0.0742678396351487,-0.123489379882812,-1.12568664550781,0.1307373046875,-0.124011694056194,-0.10185552536728,-0.17802486202074497,0.03281738281250002,-0.9717773437500001,0.2124517822265625,-0.03529654639198474,0.01745820338899339,-0.02271162952379423,0.07330139462798566,0.06584145791617356,0.04835104717769096,0.041884097730547104,0.06690779240365242,0.06339060158478932,0
10.747599964141836,0.8769943423942346,0.06024169921875,-0.9269256591796879,0.24916076660156197,0.0905136549168501,0.0544738948331348,0.0606614833098249,-0.2303466796875,-1.144775390625,-0.0012664794921875,-0.0707969417864485,-0.26505723276064297,-0.0367814504473024,-0.0242919921875,-0.9935589599609377,0.12060241699218746,-0.011479012593924183,-0.04532310288531274,0.01091746909911443,0.06159161897045607,0.05770477802453381,0.0737849454276442,0.04298193818976099,0.05971366228611971,0.031976573194815776,0
4.850799922943115,1.987651264272647,0.322799682617188,-0.9283905029296879,0.13079833984375,0.028534705815763,0.6162205888340561,0.0343236190772682,0.0059661865234375,-1.028076171875,0.00225830078125,-0.115725534640521,-0.0187955257093432,-0.15783197568743698,0.15959167480468742,-0.9937579345703125,0.04791259765625,-0.037552052087683335,0.3656419296136702,-0.0690113348861277,0.09120240034966468,0.022785216218154488,0.036238814763185356,0.03680249131696807,0.21344884633735967,0.04997920444012666,0
1.3487999987602228,0.35709845742635904,0.104537963867188,-0.948394775390625,0.19718933105468803,0.00346876731982821,0.355285663124746,-0.00920042261789674,-0.0186614990234375,-1.00895690917969,0.0408477783203125,-0.0327819151222214,0.111737717224237,-0.101210507751262,0.05099853515625004,-0.9804956054687501,0.14518615722656245,-0.01619683442293263,0.2511332358857837,-0.06103368670377436,0.03701706520977402,0.015432747907575536,0.03731586207171041,0.010965502243425641,0.05696878669005105,0.022937593850568854,0
0.6019999831914902,0.24149533117413458,0.0680694580078125,-0.875030517578125,0.194580078125,0.185487039395147,0.0798711305686754,0.0187366698492525,-0.0037689208984375,-0.9847412109375,0.14857482910156197,-0.041708298463948995,0.0109115036182727,-0.0312793596351987,0.0291259765625,-0.9583587646484375,0.1714111328125,0.01873443279393684,0.038383235316541434,-0.009503170770616966,0.02621046129098241,0.04686834119151612,0.018134011898492865,0.09385349333569454,0.02736053246988535,0.018510084163923933,0
0.3935999941825868,0.6978352119821242,0.0731048583984375,-0.906585693359375,0.490859985351562,0.0349630440549963,0.0978991332518578,0.0422712907183917,-0.0275726318359375,-0.968658447265625,0.2110595703125,-0.0631467452390868,-0.0276121868141596,-0.0269730281525405,0.0416851806640625,-0.948074951171875,0.2962298583984373,-0.01281960527609262,0.01961296702697651,-0.001887808370313572,0.022212230349301625,0.020099619490561826,0.08723011493157706,0.01862636846997091,0.03611901246345766,0.015552756408027639,0
6.256799931526184,1.9196716533972877,0.112564086914062,-0.8385772705078121,0.403640747070312,0.0705149130270091,0.0388326171188814,0.0874390354383536,-0.108734130859375,-0.9842376708984379,0.286300659179688,-0.0877692674135234,-0.141581633031883,-0.0397788382541866,0.00221313476562498,-0.9312445068359375,0.35275329589843735,-0.013828751581634166,-0.06194376341676496,0.014774674442897238,0.06010287554560428,0.033978357880842684,0.03145195833263352,0.03954587782213363,0.048682806990603365,0.03516908672518333,0
10.873199996948253,0.7036377003402428,0.179168701171875,-0.77154541015625,0.366439819335938,0.14287992406329597,0.0693263442325067,0.0966796717887106,-0.1099853515625,-1.06248474121094,0.114944458007812,-0.123376263820101,-0.151085656014048,-0.0516607977736841,0.0171044921875,-0.9459368896484377,0.24581542968750011,0.0010925991214602664,-0.045572673037386234,0.025888525040794107,0.0731729591519466,0.05968372255495128,0.06721573875464906,0.05795561467119886,0.05314321254557246,0.038619733154171575,0
11.083199844360363,0.3551491339635463,0.1370849609375,-0.85760498046875,0.294876098632812,0.0698592427666316,0.1676079074169,0.13534291186226302,-0.168487548828125,-1.07817077636719,0.157318115234375,-0.10825297093786801,-0.20663626687590197,-0.0824914147652044,0.026569824218750017,-0.9632757568359374,0.2216754150390625,-0.017065728012826256,0.005685209768657548,0.001943031678677456,0.07334171837545506,0.049157966180219836,0.036101546947548364,0.04204560562227579,0.08716717337981733,0.049809512291873546,0
11.428799972534145,0.10166609048750497,0.19822692871093803,-0.866912841796875,0.323074340820312,0.0701580494409384,0.0753778451774938,0.169739767869508,-0.059906005859375,-1.03251647949219,0.136825561523438,-0.0800804550303557,-0.16769179699123699,-0.0881415773339165,0.03894836425781254,-0.9646990966796877,0.21911865234375008,-0.014153422876447915,-0.02364859351115026,0.00963999333478085,0.06046829201973994,0.048060506586884814,0.04188374113263525,0.03859861932187448,0.06940208541006947,0.056415868607394976,0
11.25040000915527,0.05518759808491043,0.140533447265625,-0.9251251220703121,0.272247314453125,0.067286629153615,0.11988485963100699,0.0788519388195021,-0.0926513671875,-1.07186889648438,0.14552307128906197,-0.0892403975996832,-0.128070617873584,-0.0852374001651851,0.05402587890625,-0.9796398925781249,0.20241210937499987,-0.0011812610804711914,0.006730841381133195,0.002827989456266415,0.05939172739962243,0.04038460802324324,0.03572519678923137,0.041484893661231356,0.05910990709480783,0.04039989299925158,0
11.540799903869631,0.16444141545199953,0.20806884765625,-0.89703369140625,0.280242919921875,0.05394312682788201,0.12577896775557001,0.0575562374787925,-0.150909423828125,-1.03208923339844,0.123367309570312,-0.11297155975727001,-0.0626852194221761,-0.0810439867127463,0.06041564941406258,-0.964451293945313,0.1932171630859375,-0.030073458988322043,0.026062567944352955,-0.016837505760050803,0.0787435471904582,0.03939018727615774,0.03270758028673256,0.045349728966639885,0.052852694098369374,0.04168733737423812,0
11.617200088500987,0.13408720405346827,0.305999755859375,-0.88018798828125,0.272674560546875,0.0431701075862935,0.184366381208442,0.0913871717543961,-0.08551025390625,-1.06787109375,0.08416748046875,-0.100159624385117,-0.12191791680717301,-0.116196115205138,0.0742987060546875,-0.9706701660156253,0.16839843749999997,-0.02337090037796553,0.013426742088764593,-0.00308873423227389,0.08688455110107329,0.04662276610531416,0.04283323663048134,0.031849853176996144,0.07704032402623011,0.04996659931444009,0
11.316800079345715,0.11040517691878192,0.14515686035156197,-0.8872222900390621,0.295791625976562,0.0833468221073378,0.135050230458463,0.0721484960396637,-0.0749969482421875,-1.02406311035156,0.1461181640625,-0.116866166535402,-0.177903421875037,-0.0908936880044044,0.0450872802734375,-0.9607958984374997,0.1979571533203125,-0.012267883519383058,0.004163351690053989,-0.00704541396909335,0.06908303965773635,0.041150813911636136,0.03808271431122012,0.05249206112522777,0.07502128179898776,0.045500561473722716,0
9.283600044250482,2.232688744589696,0.260101318359375,-0.8992919921875,0.22288513183593803,0.124168554244399,0.319104222871038,0.164870710448516,-0.132080078125,-1.12384033203125,-0.24372863769531197,-0.10870277884598199,-0.18161347158962696,-0.26102760371524397,0.07953796386718744,-0.9982763671875,-0.002250976562499957,-0.012400178709693893,0.00629188851762191,-0.005559561828427611,0.09005656899662369,0.057302596158726134,0.11306653926324464,0.056768527697203426,0.10322447054442223,0.07816213778779968,0
5.359200134277343,2.180189180924133,0.1636962890625,-0.8543701171875,0.455490112304688,0.0187955257093432,0.129144670741212,0.0476732466735084,-0.07232666015625,-1.00419616699219,0.18406677246093803,-0.0737748885173751,-0.0922300622394062,-0.0650066969443982,0.05615661621093745,-0.9384307861328126,0.3497222900390626,-0.025342672891127113,0.004079163841674347,-0.0010803166225128206,0.05679215680479153,0.038327979629722266,0.059591430786245854,0.027526184314503845,0.044912594801848324,0.02930288257667454,0
11.234399948120128,0.6960667821335281,0.2486572265625,-0.813812255859375,0.333038330078125,0.0515438850018296,0.18118603423466897,0.0757682645932994,-0.111495971679688,-1.1008605957031201,0.096893310546875,-0.0593786386127337,-0.15295519509928399,-0.11329646541026,0.04992553710937498,-0.9666168212890623,0.19432434082031264,-0.017929614859870498,0.01849578160233262,-0.011917006719442964,0.07297977073600356,0.05843587823259325,0.06599654225434759,0.031238232612950324,0.06504689820328427,0.043669150852197774,0
11.331199951171861,0.04612665927806753,0.128311157226562,-0.8478240966796879,0.260726928710938,0.0762819883675756,0.13982820777017402,0.0709399535369857,-0.0564422607421875,-1.05673217773438,0.10400390625,-0.101888015932579,-0.0805837924763806,-0.0768764059228813,0.02615722656249996,-0.9686486816406252,0.19886291503906256,-0.02698652505294509,-0.0014842222860786075,-0.0022769494687959442,0.05763583388037638,0.04507573764094432,0.03878442130425165,0.040435846249565074,0.05733416160990922,0.042278265963837144,0
11.567599945068343,0.10639077000592015,0.201507568359375,-0.8295135498046879,0.24443054199218803,0.13885801818505802,0.227934365061593,0.0863972068199146,-0.129898071289062,-1.07173156738281,0.0905609130859375,-0.0925565657890499,-0.0923997056008442,-0.174895115107684,0.035984497070312475,-0.9662463378906244,0.17962463378906243,-0.015053784377781924,0.005841718419599338,-0.0017898466527761123,0.07753982667182072,0.05700797405917448,0.03791574623642211,0.050140802081647944,0.06795677121210414,0.05521900777527053,0
11.408399963378926,0.017483399176801282,0.19636535644531197,-0.840057373046875,0.267898559570312,0.136064628517674,0.10509712504612401,0.0838842480153158,-0.124420166015625,-1.06109619140625,0.134719848632812,-0.10380895402685301,-0.0935954649302898,-0.151242782518363,0.0341644287109375,-0.9515802001953131,0.19440979003906247,-0.005215374889145791,-0.001541789176201759,-0.008792373075674789,0.07481131528957147,0.05737751143244168,0.04001804772407942,0.05283757262175192,0.060162006723529525,0.05618543836545977,0
11.503200149536138,0.0869252762110421,0.24598693847656197,-0.90478515625,0.284774780273438,0.0332130809027052,0.129697010351295,0.0896939339333237,-0.0393829345703125,-1.03445434570312,0.130645751953125,-0.106007926138931,-0.0882134826833487,-0.11539423740091499,0.028997802734374977,-0.965997314453125,0.20071105957031266,-0.02772450829629474,0.013495728613641945,-0.01481919184367898,0.05944599928074594,0.03422985680809906,0.03923777358247453,0.036449700461960416,0.05012665256580246,0.03600584695457072,0
11.527200012207054,0.04439606256186248,0.135894775390625,-0.87603759765625,0.24664306640625,0.0447533568543456,0.148173489362047,0.194032857017102,-0.098358154296875,-1.06723022460938,0.142669677734375,-0.0829052699986027,-0.24315033594976102,-0.0904654517011197,0.01802612304687498,-0.9727575683593754,0.19399719238281257,-0.013999854355349579,-0.00803612054724719,-0.0023403220500954856,0.06051852665622026,0.04786596415608365,0.029111815799547247,0.03588788155239165,0.07288742083041597,0.05153154663735202,0
11.251600112915012,0.33600202263498924,0.166900634765625,-0.8253936767578121,0.24043273925781197,0.0975827497143564,0.307977535836687,0.0988703881014097,-0.18293762207031197,-1.04437255859375,-0.02569580078125,-0.10077827670634198,-0.19528294483278502,-0.182983135338254,0.018226318359375063,-0.97108154296875,0.13126770019531248,-0.017955383606578095,0.003178354929277231,-0.01217628143052872,0.08985647286811728,0.050637931848889914,0.07814992011503358,0.04534654589743513,0.09367593418961873,0.07058842045764724,0
5.144799933433534,3.23440107643978,0.113204956054688,-0.957977294921875,0.259063720703125,0.0161427509475153,0.0279504082725996,0.0375297987136146,-0.051544189453125,-1.03486633300781,-0.0678863525390625,-0.0558041437976294,-0.0564134750550395,-0.0389279582859062,0.03179931640625002,-1.0044403076171873,0.0233795166015625,-0.016676522998477702,-0.010230522674895033,0.002158683811107711,0.03397332691057582,0.022492324194642293,0.09032990768874889,0.017370327921505373,0.01768317315995371,0.01684827426446726,0
0.013200000524520878,0.06600000262260436,0.03765869140625,-0.9599761962890621,0.203765869140625,-0.0149621716362832,-0.00517984832020412,0.00198432132821804,0.0300445556640625,-0.976348876953125,0.19136047363281197,-0.0213345834926248,-0.0084057353486171,-0.00125754466673542,0.0348870849609375,-0.96885498046875,0.19970703124999997,-0.01781293644619196,-0.006734484585504413,-3.704989708518243e-05,0.001560939317341976,0.0028081089086748434,0.002449958445195158,0.0016998344252049033,0.0009794804063561128,0.0008889412755159366,0
0.0,0.0,0.037506103515625,-0.965789794921875,0.20361328125,-0.0149461926697427,-0.005207278879431929,0.00196780972945955,0.03228759765625,-0.9701080322265621,0.19627380371093803,-0.0202858306553516,-0.00840520271639908,-0.0022991069690654104,0.03499267578125,-0.9682672119140625,0.19897216796874997,-0.017474672377174438,-0.006906865676543061,5.2155346788111565e-05,0.0015586109240102797,0.001255407384532978,0.002051440390366355,0.0013707388623781082,0.0010155482410376686,0.001111558556746425,0
0.0,0.0,0.045654296875,-0.9626617431640621,0.204376220703125,-0.0149475242502877,-0.00305304787366684,0.00196248340727939,0.0277252197265625,-0.970947265625,0.19639587402343803,-0.0213585519424355,-0.00837084793833706,-0.0023425164948337,0.03556396484375,-0.96822998046875,0.20039978027343744,-0.017978393318396395,-0.006393046028467535,-0.00021021928380649503,0.0036478281240576098,0.0016648224627284157,0.002185551891372241,0.0014968713249826637,0.0011625710631884309,0.0009954806173472586,0
0.0,0.0,0.044219970703125,-0.96551513671875,0.2030029296875,-0.0159523349295746,-0.0041372207534381,0.00411911125802556,0.022430419921875,-0.9716949462890621,0.197021484375,-0.0203151254273424,-0.00840520271639908,-0.00441472213902435,0.034464111328125,-0.968895263671875,0.19963562011718747,-0.01742968626004083,-0.006822081280079302,-7.554855380336786e-05,0.006034635466828572,0.0016522828565097667,0.0017162278483294005,0.001145639697905396,0.0013066995404413153,0.0019182980638107843,0
0.0,0.0,0.039794921875,-0.93524169921875,0.354629516601562,0.0031688953810852898,-0.0041798313308793605,0.00197606552883879,0.03204345703125,-0.9700927734375,0.19557189941406197,-0.0203071359440722,-0.00950349034994776,-0.00552179820417029,0.0349261474609375,-0.9659887695312501,0.21042053222656246,-0.016659031356438057,-0.006912245261945022,-0.0004086141323730375,0.0015695175891849461,0.007729227453498981,0.03612873937228203,0.004726748102776742,0.0014033315950530982,0.0017969226523423488,0
3.4551999843120575,2.4772668007244603,0.127044677734375,-0.790557861328125,0.423355102539062,0.0910761145390748,0.0747019348928316,0.0304127670164869,-0.0626678466796875,-0.9840545654296879,0.27191162109375,-0.0834898338578751,-0.0600891699915669,-0.0720275885261741,0.0457281494140625,-0.9245904541015625,0.3745996093749999,-0.017389515138158066,-0.003420106040390282,-0.010447517040514696,0.04978113959448964,0.03783982166139541,0.02865540232647435,0.03785973014804607,0.030816733293147745,0.02601590723531461,0
10.496400127410896,1.325188505520249,0.163604736328125,-0.829376220703125,0.376205444335938,0.0864145173670001,0.12781894915057102,0.0613813357524733,-0.034515380859375,-1.0211181640625,0.204254150390625,-0.115567076555662,-0.0630319629961044,-0.0880534267018349,0.07735107421874994,-0.9534735107421874,0.2862365722656251,-0.009734269237369687,0.005337603330536054,-0.010988820511039839,0.046861936177659436,0.04437098150061116,0.04303778355347896,0.04675539649234117,0.04572207830617362,0.041138367216908264,0
11.678400154113756,0.36463080664582204,0.14485168457031197,-0.8661346435546879,0.279067993164062,0.0505989954470695,0.0821598512094895,0.0554832328862748,-0.047882080078125,-1.07154846191406,0.11090087890625,-0.103552757929987,-0.0909562722900213,-0.0522703953472032,0.043594970703124986,-0.9611431884765622,0.20281982421875,-0.02140127969896471,1.1771172018148062e-05,0.0012735555912089804,0.046846329154559864,0.04573708546778874,0.033626213151316205,0.03583362241166994,0.04244411767634569,0.03494563200968643,0
11.870000152587918,0.23822272644110049,0.137481689453125,-0.899505615234375,0.305160522460938,0.0549444753977518,0.0677191265146439,0.06395847673934299,-0.133209228515625,-1.02174377441406,0.167327880859375,-0.0723090846533954,-0.187537407118399,-0.0319656562481121,0.0335968017578125,-0.9579357910156253,0.22685058593749996,-0.005539566814963288,-0.01336597940533328,0.005266198655388847,0.056921832583095994,0.03280848814927704,0.03240678176911851,0.04091573078799234,0.05146318820315684,0.025991906137188353,0
11.816800003051771,0.07893680483440393,0.14202880859375,-0.905731201171875,0.271652221679688,0.0541300807364056,0.0956042873405366,0.12344231021513499,-0.0824127197265625,-1.00736999511719,0.15702819824218803,-0.0491289305253458,-0.10670301118344198,-0.0716701923078854,0.04043212890625,-0.9623681640625003,0.22382385253906265,-0.0027538790094517,-0.012576298878902997,0.001369013937321787,0.06618419463946772,0.026296682962034773,0.031652949355408605,0.03213243899938711,0.05779104334314865,0.0446498354127749,0
10.490800285339358,1.4494421830043531,0.13287353515625,-0.8889312744140621,0.281570434570312,0.0509473369176519,0.0974634400975209,0.0566033584407621,-0.050811767578125,-1.07450866699219,-0.109527587890625,-0.103817209826232,-0.0829902248373762,-0.0642210644228248,0.023322753906249983,-0.9906970214843756,0.078677978515625,-0.01573137778025295,-0.012789415681975481,0.0032838267610887425,0.04551105546549811,0.04129412232619281,0.09546335368470098,0.03601947635030636,0.045640423420641146,0.02754021412441298,0
2.342400026321412,2.430377741253032,0.0520172119140625,-0.9616546630859379,0.23945617675781197,-0.00215742679907319,0.0245540789344216,0.0213897109271894,0.002716064453125,-1.03492736816406,-0.0117034912109375,-0.0276657163520702,-0.0435954144123791,-0.00865394196221249,0.0318304443359375,-0.9896185302734373,0.11513366699218745,-0.014637510994113796,-0.010711798494449785,0.002308747612211493,0.011862265512385988,0.023153619383595017,0.09690328381491405,0.006030080570611038,0.01449474266774561,0.006516295855305814,0
0.0,0.0,0.0411376953125,-0.9628753662109379,0.21766662597656197,-0.0128167290621153,-0.0041372207534381,0.000920921104949401,0.035614013671875,-0.96832275390625,0.20649719238281197,-0.0202698516888111,-0.00838443005989647,-0.00125754466673542,0.03862548828125,-0.965216064453125,0.2119598388671875,-0.017169356937163406,-0.0061855431689729215,-7.45258999447774e-05,0.0014831399066577544,0.0013210754320508889,0.0029358534036353283,0.0018180947512466158,0.0010574127017768918,0.0006847277783849972,0
2.34799994468689,2.085639336635513,0.109283447265625,-0.8882598876953121,0.486007690429688,0.0230432676480196,0.0371670761731458,0.015223694055328998,-0.065155029296875,-1.01347351074219,0.24281311035156197,-0.0683673399239692,-0.0571439801420482,-0.04449822602191599,0.041719970703125,-0.9337701416015625,0.36796081542968745,-0.015780891271239703,-0.003302298446409539,-0.006550332322447613,0.037421172159237265,0.027547860036719142,0.05029853148853044,0.019201206772775495,0.024195502255911383,0.01497730601587069,0
8.638399982452396,1.5476642354183203,0.105072021484375,-0.8170318603515621,0.342269897460938,0.11460807224712402,0.118148212284166,0.0619877375326843,-0.077239990234375,-1.02377319335938,0.21087646484375,-0.0620300817940166,-0.123272933169806,-0.0633462160047338,0.00684814453125,-0.9538903808593752,0.2982952880859377,0.0001889353003745864,-0.030252274276554372,0.006989072133071619,0.04368949446419765,0.047552705499149604,0.035458337810224436,0.04769506290870292,0.04452764840902672,0.03280053506162121,0
10.731600074768078,0.22493878980726792,0.077972412109375,-0.891021728515625,0.279373168945312,0.044599692459448,0.0681681354744312,0.0668900844673022,-0.0673675537109375,-1.14234924316406,0.078125,-0.0746963422545425,-0.134296289553862,-0.041910698706795,0.018934326171875,-0.976766357421875,0.1966015625,-0.01484839074187063,-0.018708823836894622,0.007103865028698404,0.03195814229073825,0.053888800363522484,0.03973254142433149,0.03750560317505463,0.04764637989837828,0.028456198209854133,0
10.927599754333492,0.26596179052908614,0.363662719726562,-0.791168212890625,0.31561279296875,0.0709535356585451,0.292455301423161,0.0511031318414215,-0.067108154296875,-1.04750061035156,0.0977935791015625,-0.170848175515199,-0.087350884806272,-0.15269260741580198,0.09611511230468751,-0.9594793701171873,0.20759155273437482,-0.03214207469136328,0.026117365146942424,-0.024364973191737187,0.12335940508505386,0.05255805079251591,0.05873635071250743,0.05703829501470954,0.107320765414109,0.05808335551701075,0
9.392400016784668,0.5677460313796865,0.18183898925781197,-0.899322509765625,0.408966064453125,0.0807196136919747,0.133492813852985,0.0715000163142294,-0.105300903320312,-1.02455139160156,0.122146606445312,-0.166004418124563,-0.122701951432093,-0.0848725470958443,0.02289733886718752,-0.95488525390625,0.25045715332031265,-0.02660185806509401,-0.001826662191685369,0.0005426776616476192,0.08055279031484797,0.03307483172332047,0.09877459988589227,0.055223910696134505,0.07406448606519371,0.04372313972913136,0
11.489600143432623,0.4751882739088286,0.17378234863281197,-0.8562164306640621,0.356826782226562,0.119008413316262,0.127866619734083,0.0941470055920452,-0.1383056640625,-1.08787536621094,0.0966339111328125,-0.20868263985751898,-0.12443939772726,-0.0913280495781963,0.015084228515624956,-0.9616156005859378,0.22922302246093762,-0.023000060522494148,-0.017210817029013777,-0.0033470608580115895,0.07426913530124664,0.051817783341787965,0.06671432206130636,0.06190504958416472,0.0722728278087565,0.04572659363652731,0
12.007999877929679,0.15737418483048438,0.17030334472656197,-0.8607177734375,0.378280639648438,0.080695112609946,0.2333685452659,0.084359355953786,-0.186553955078125,-1.05081176757812,0.141845703125,-0.11959484138829699,-0.11711117735568902,-0.139499041059441,0.029565429687499957,-0.9590966796875001,0.23588928222656236,-0.021055910316158853,0.0014958230157870172,-0.01685237685157786,0.07905933544204882,0.05114931815606177,0.05699759545268549,0.05373678873444523,0.08719913193073375,0.05766437135418356,0
11.37520004272461,1.041653962005302,0.116409301757812,-0.885589599609375,0.248809814453125,0.0502088423473729,0.15768097445363,0.0524725292739402,-0.16291809082031197,-1.09164428710938,0.0150299072265625,-0.0836837119852329,-0.0966248106702549,-0.13091247707280698,0.012228393554687522,-0.9902087402343744,0.130279541015625,-0.012914584253209216,0.008590121969849833,-0.02267283259303394,0.06592619912252845,0.05012889050892137,0.06604557783882277,0.029122501435543333,0.062807620363539,0.04543147911095927,0
4.999999876022338,2.582263104246326,0.06854248046875,-0.95458984375,0.250244140625,0.058648932474052,0.0738137706692902,0.0575682217036979,-0.0904998779296875,-1.036865234375,-0.0040130615234375,-0.0747322949292585,-0.0854749541344202,-0.0904318958713847,0.012369384765625,-0.9953277587890619,0.07229309082031252,-0.014888380768799257,-0.004882522363463311,-0.007262142018603987,0.03100004194157305,0.021088458909073626,0.06325509902525671,0.029617482430566704,0.03199468678488451,0.03019388606220464,0
0.04,0.2000000000000001,0.020477294921875,-0.9548187255859379,0.253753662109375,-0.0118505342186346,-0.00413695443732909,0.0041707765831731,0.009521484375,-0.9705352783203121,0.1861572265625,-0.0213945046171516,-0.0105594337221642,-0.0023126890906248103,0.0159417724609375,-0.963284912109375,0.22783081054687504,-0.01722595443664977,-0.007036060947344987,0.00048152083037504686,0.0021405280345339747,0.0035749844866903692,0.01393112770273504,0.002195092462869821,0.0016990675303289724,0.001418322172946681,0
0.0,0.0,0.0186767578125,-0.9604034423828121,0.233306884765625,-0.0149448610891977,-0.00309379423834505,0.00198698448930812,0.01422119140625,-0.965423583984375,0.22361755371093803,-0.021342572975895,-0.0084057353486171,-0.00124662570626609,0.0165435791015625,-0.96315673828125,0.2281616210937501,-0.01717638768244122,-0.006653492530432924,0.00018250110318095023,0.0010228037370338817,0.0012094301409558998,0.002655043912533013,0.0018682566976711077,0.001056658881155092,0.0010077634269714604,0
0.0,0.0,0.0184173583984375,-0.9597320556640621,0.233184814453125,-0.0149541821530129,-0.0051934304417635205,0.000920921104949401,0.0141754150390625,-0.9650726318359379,0.22393798828125,-0.0213585519424355,-0.00837750584106226,-0.0023292006893833,0.016165771484375,-0.9625262451171875,0.22808715820312492,-0.018022101118206776,-0.006775720971823202,-0.00033762491035588526,0.0011244416214339417,0.0013137433396834123,0.0024804760902777208,0.0017787917729558198,0.001061695658994361,0.0008539813765017638,0
0.0,0.0,0.0191192626953125,-0.957427978515625,0.23527526855468803,-0.0117533288388467,-0.00520035466059773,0.0019323896869615,0.0126190185546875,-0.966278076171875,0.22344970703125,-0.0213798572311561,-0.0084057353486171,-0.00124662570626609,0.01619384765625,-0.963023681640625,0.22871215820312504,-0.01764257935758178,-0.006735592460517886,-3.530286341009031e-05,0.001507968823658847,0.002072723262636751,0.0034554063800281394,0.0022684066932725133,0.0009213011620942229,0.0009796408117544037,0
2.503199957609177,2.5353692614085466,0.15093994140625,-0.85894775390625,0.506729125976562,0.108989068663166,0.0337869921176173,0.0711671211779695,-0.0811767578125,-0.969268798828125,0.2279052734375,-0.0583708984562477,-0.129409655269675,-0.0460910626698924,0.02779968261718748,-0.91970947265625,0.405816650390625,-0.009813546216699139,-0.028740014230519372,0.010337294129318495,0.05154182625911678,0.0359480983566344,0.07983251909589208,0.034271401458067535,0.049365670964398825,0.030381408851476038,0
10.674000339508073,1.755000093995353,0.137039184570312,-0.887664794921875,0.509536743164062,0.0574276067981417,0.11827338085539998,0.0724395795468093,-0.104034423828125,-1.01560974121094,0.18971252441406197,-0.0804762007683414,-0.10521323886965099,-0.0720070821857805,0.01920104980468752,-0.9520556640625002,0.31675292968749996,-0.020295588477585613,0.001323228871861156,-0.0009788821429138896,0.06882625695358115,0.03173587310653908,0.09367075416117325,0.03679749933414517,0.059208802106032875,0.037287478190872476,0
12.14519981384277,1.1824273683626294,0.122024536132812,-0.906005859375,0.309844970703125,0.0692557704636196,0.144982489743914,0.11986861434835801,-0.12762451171875,-1.08462524414062,-0.06109619140625,-0.0999130156681758,-0.189784582446208,-0.10552163292388302,0.0070074462890625,-0.9875811767578122,0.09953674316406244,-0.02146169084513208,-0.033812366716483536,0.012065014560185206,0.061028058160668384,0.04259035208510138,0.11329665437939464,0.04196428165367406,0.0780740607624068,0.054021136113108624,0
3.580869615077971,2.8833407712912806,0.04827880859375,-0.8792724609375,0.24580383300781197,0.022955383332047,0.0202690527404841,0.133284288339632,-0.0355987548828125,-1.03129577636719,-0.0796966552734375,-0.112865299629776,-0.0606550917232087,-0.017276724939671,0.00779060695482337,-0.9860833209493889,0.07691889223845111,-0.02116025065187593,-0.013920991439674802,0.005938420809310051,0.019846011333927698,0.03742105168661799,0.11345934521975759,0.02596307887920585,0.021662160589877754,0.029114624552386358,0
2.1088000154495243,1.1333663954365605,0.335617065429688,-0.9222412109375,0.315994262695312,0.0171526216328734,0.7622028292511851,0.00512019351178634,0.031005859375,-1.08134460449219,0.0054931640625,-0.0999012977593794,0.0011965582777726,-0.246975966855659,0.1881622314453126,-0.9682281494140629,0.17487976074218742,-0.03685869277155903,0.5027640035264159,-0.11925691820389937,0.0803478998655471,0.03514868988324017,0.10899501544072793,0.029976564600356186,0.24899987195501058,0.06213465294212263,0
6.024000072479246,2.9231974390398716,0.290481567382812,-0.8693389892578121,0.44769287109375,0.0169864403808524,0.712654450854152,0.0930868011620846,-0.17266845703125,-1.01683044433594,0.0337677001953125,-0.137416449086999,-0.161612599170914,-0.176684226727999,0.04520324707031248,-0.9440875244140626,0.3028680419921876,-0.031569665499306045,0.11491297223400497,-0.023905886830385012,0.10709912336870013,0.040067127062632914,0.10958060750574773,0.038555442364275515,0.2507961963929258,0.06460171930371789,0
11.750799903869625,0.5365316042697749,0.162506103515625,-0.87030029296875,0.308425903320312,0.0599538814081908,0.124735008608259,0.0694198211867685,-0.0594024658203125,-1.07020568847656,0.14935302734375,-0.101673098832609,-0.114945494757237,-0.0716323754204063,0.0408880615234375,-0.9649157714843745,0.22035156249999996,-0.013254542092680004,-0.00918864079323425,0.004792592739773508,0.0576681445969917,0.04420553017682834,0.040855074917066705,0.04243134465505963,0.06024452045135809,0.03617782903837468,0
12.740800056457529,0.02956907162526124,0.106063842773438,-0.7872161865234379,0.251312255859375,0.0750207152753141,0.10150372178728,0.0765501686893466,-0.169281005859375,-1.10545349121094,0.130966186523438,-0.0877162705078309,-0.134335438021886,-0.0628271659082773,-0.00117797851562496,-0.9733642578125001,0.19930541992187503,-0.005190160079944901,-0.005497638006761087,-0.0003801396139979099,0.06544589558354116,0.06599400161956152,0.03134011730558268,0.05366506730211035,0.06441645863871417,0.03985295864298525,0
12.60759994506836,0.17567210113899684,0.173431396484375,-0.804443359375,0.2744140625,0.0870874981744632,0.12584874257613002,0.113725500661872,-0.220245361328125,-1.07717895507812,0.05877685546875,-0.158543838646815,-0.22724700318424298,-0.0788330303757626,0.0365673828125,-0.965999755859375,0.17321411132812503,-0.026113615416127597,0.004890735552265111,-0.012733361467351495,0.07717128949393132,0.06696638112690036,0.048330615443975204,0.05162123531549209,0.08417335422039114,0.048478825549985345,0
11.457999954223634,0.6535288809378421,0.123260498046875,-0.7549896240234379,0.327590942382812,0.0746630527409165,0.0968652941166891,0.051253067810792995,-0.0647735595703125,-1.08648681640625,-0.006011962890625,-0.129896747433051,-0.084997449350969,-0.0542970609367535,0.037202148437500034,-0.963648681640625,0.137232666015625,-0.015369773767441992,-0.000878811201793072,-0.0010507129238354993,0.050924589232800806,0.07040099290697827,0.06644604093835219,0.048801935481042016,0.049500825113421416,0.0320548874514006,0
6.9323998641967775,1.814176324845929,0.0843048095703125,-0.9352874755859379,0.122482299804688,0.0639638030615231,0.0521103393656895,0.0331257292189506,-0.0491180419921875,-1.04925537109375,-0.001922607421875,-0.0610412500812702,-0.042314433928051,-0.037442713345969006,0.0221636962890625,-0.9906915283203126,0.07435852050781241,-0.010164657374815193,-0.004315972125804214,0.0026792252777745997,0.039203570642588954,0.028400567591733906,0.033456430919714876,0.025710847787490825,0.025587566068989376,0.01911715722688678,0
1.071199980378152,1.1255861869540977,0.034942626953125,-0.949676513671875,0.24882507324218803,0.0171022878882709,0.009757289601832309,0.0329670048179819,0.005523681640625,-1.02630615234375,0.03863525390625,-0.0471065259935396,-0.0296982408960186,-0.0213348498087338,0.01952392578125,-0.9799914550781246,0.14857360839843758,-0.01512285612381419,-0.008921738788786491,0.0014035391576935612,0.008598266845054964,0.022306885573412275,0.07557379103805892,0.010988305216989238,0.009703167338343211,0.010177779243547637,0
3.5843999910354616,2.683922870213017,0.105667114257812,-0.741546630859375,0.5006103515625,0.152413241817453,0.0811782100316863,0.20254192301601398,-0.239349365234375,-1.04627990722656,0.197021484375,-0.138186901590359,-0.24844576546127398,-0.0856946649243517,0.00734497070312498,-0.9233630371093748,0.38686096191406244,-0.004600802530710392,-0.01711523085116866,0.012407795350411479,0.06815188441662265,0.06688459816274574,0.06825295232498187,0.061073295525227424,0.06377110194364446,0.054581675815059114,0
9.345599822998047,0.4553303360084596,0.16249084472656197,-0.887420654296875,0.315460205078125,0.121639350157151,0.0946016071901217,0.0990624020160044,-0.112152099609375,-1.11701965332031,0.0429229736328125,-0.0802170751942767,-0.16212632294519,-0.0951358373047916,0.009134521484374977,-0.9754064941406245,0.15991699218749994,-0.0020746237944604656,-0.027643271230402933,-0.00046168560657613376,0.06691668077028635,0.05511385635666002,0.07207770452909783,0.053344386770775666,0.0747779003242209,0.05095288029886269,0
6.872800006866454,1.4709138409078502,0.278564453125,-0.6981201171875,0.4456787109375,0.125229557622687,0.0434156510387988,0.0796647355841943,-0.0445709228515625,-1.0908203125,-0.0349578857421875,-0.17167375545312402,-0.161893030033699,-0.13611442963005901,0.0671185302734375,-0.9651568603515622,0.1483276367187499,-0.015220977631017088,-0.015091057980398656,-0.0010125125411594113,0.07237620872614668,0.07200885316032185,0.1239495449951996,0.0535540735782207,0.046000602079175446,0.040688060593018015,0
7.3176000213623045,1.6503895983588022,0.15931701660156197,-0.855682373046875,0.432144165039062,0.0591549330811671,0.11601688446377599,0.0437868956947558,-0.125930786132812,-1.1046142578125,0.16874694824218803,-0.0737543821769815,-0.16161153390647798,-0.0809776740016034,0.006083984375000019,-0.9448773193359377,0.29146301269531255,-0.016646706246913175,-0.008104435955529904,-0.005054104506174938,0.061963479754696044,0.06083924132870892,0.06526018492755062,0.02950165723650886,0.06028745266269029,0.03899114728223397,0
9.997999954223642,0.324512474118215,0.16294860839843803,-0.8596954345703121,0.31793212890625,0.0710339631234655,0.13235377985475802,0.0541931976542404,-0.03448486328125,-1.03886413574219,0.136688232421875,-0.0896686339029679,-0.10819651192275802,-0.081771296006447,0.06004089355468753,-0.9600347900390628,0.23449096679687517,-0.025691504383350047,0.034842488078770543,-0.011654823836446847,0.05809980397566883,0.04343922918351869,0.036641183217181114,0.04476892832982608,0.05648037367345959,0.034243364807280866,0
10.892400169372557,0.4267833191882793,0.1309814453125,-0.8564605712890621,0.283355712890625,0.0952093405508778,0.13841034080581602,0.0618569763231615,-0.122207641601562,-1.05752563476562,0.158233642578125,-0.19085064583056602,-0.0851764137762223,-0.0752108649771458,0.01703674316406252,-0.963720703125,0.22443481445312505,-0.02277070908941651,0.0033378569732842663,-0.008856757658188557,0.05939492578975448,0.04552834032295734,0.024454374839374224,0.060579673933648,0.05042771146332226,0.036627436234231814,0
11.608800125122077,0.1159856533355712,0.15802001953125,-0.9066619873046879,0.233734130859375,0.11038190191327699,0.0994416361552317,0.0801883130545039,-0.112442016601562,-1.29168701171875,0.13427734375,-0.0929997157944391,-0.10390349624555001,-0.10456928651807001,0.03356384277343752,-0.9839636230468752,0.19230041503906242,-0.011521591213432375,-0.013923080747444767,0.0032019079259579227,0.05863266088004202,0.0759023609777638,0.024310664727263568,0.04826082236287135,0.050302115228424246,0.038320950875174384,0
11.160800018310546,0.13847152642215468,0.13507080078125,-0.8955230712890621,0.237945556640625,0.0438790410684726,0.102382564947006,0.0815499873198614,-0.149749755859375,-1.01107788085938,0.14033508300781197,-0.0818946003649176,-0.137310455275613,-0.08593940942853,0.02228332519531252,-0.9586700439453126,0.1946240234375,-0.01834914795271286,0.014795873205174283,-0.017498715395495697,0.065885700004079,0.03692906686995603,0.029247127230859652,0.039503941821703276,0.05759516777082204,0.03906192161134835,0
10.23159999847411,0.867326794538353,0.099212646484375,-0.84722900390625,0.203125,0.0393950767411061,0.0783416771546429,0.0523393712194363,-0.041259765625,-1.08905029296875,0.0755157470703125,-0.10734563195447801,-0.0679353751951583,-0.0645678079967531,0.029937744140625,-0.97743896484375,0.1396142578125,-0.01456014083812482,-0.007095747713695829,0.00174577666305746,0.04037230396010136,0.04644934585924313,0.034272671502906735,0.033737039513661846,0.042783658990423044,0.02745823551734708,0
7.140400047302247,1.6023303343399191,0.102127075195312,-0.8958587646484379,0.264999389648438,0.0143563024882901,0.0716699259917764,0.0413426464462811,-0.0271759033203125,-1.0386962890625,-0.102569580078125,-0.07743780028067,-0.0563346454867732,-0.05693412304815,0.025875854492187482,-0.9917913818359367,0.08707580566406246,-0.019288050721342473,-0.010851667714900757,0.0027732774748318294,0.030244450317113494,0.030077418057382035,0.12760122674520138,0.019752913897882696,0.030350775367472695,0.02054845550933161,0
0.7740000116825111,1.1151905713299097,0.036865234375,-0.9539947509765621,0.231231689453125,0.00825553306313663,0.0107253486580761,0.00760305859606722,0.0197296142578125,-1.01138305664062,0.017059326171875,-0.0266502530284229,-0.0213268603254635,-0.00549889501879561,0.0291168212890625,-0.9767120361328128,0.15846313476562499,-0.01558907975688783,-0.006068214943988391,-0.00031454063002707894,0.003885229994124304,0.017713111242808836,0.07397000157344187,0.00662108536099764,0.006219191693183893,0.002463820155176414,0
0.0,0.0,0.030303955078125,-0.9628143310546879,0.209686279296875,-0.013881460865928999,-0.00518650622292932,0.0030202909922588603,0.0260772705078125,-0.9710693359375,0.20014953613281197,-0.020300478041347,-0.00838469637600547,-0.00229085116968616,0.02857177734375,-0.96703857421875,0.20340270996093754,-0.017468813422776275,-0.00643889500979434,-0.00011958658558891842,0.0010942807357430212,0.002198133826921379,0.002096927208601099,0.0020432310263584197,0.0009011230963171631,0.0010801205460705412,0
0.44720000505447316,0.6230872065229568,0.040069580078125,-0.9334564208984379,0.343582153320312,-0.0023065638201176302,0.0053713296025808205,0.00534310009502598,0.019683837890625,-0.969024658203125,0.20207214355468803,-0.0246126684784033,-0.0168657991834718,-0.00969523794843347,0.028646240234375,-0.9538665771484375,0.26507873535156257,-0.016442143517262014,-0.006700939408413776,-0.0005775331139945832,0.005645143424565981,0.010642602473099432,0.04808749856695161,0.005069919411783554,0.005372091902392707,0.0032669055546023546,0
3.473200035095214,0.7135809178693703,0.0561370849609375,-0.9243011474609379,0.346817016601562,0.0020775319663708103,0.0234808250151196,0.0245143978341794,-0.0060882568359375,-1.00393676757812,0.0564117431640625,-0.0392033291426204,-0.0371598856382026,-0.0119163142975596,0.0273956298828125,-0.97166748046875,0.17999633789062508,-0.01904133547795755,-0.008853700349257138,0.0014058933920971894,0.015130963564493876,0.02562646428679322,0.09274632799021267,0.011728050527009735,0.016262871335471645,0.00843247395443181,0
0.6372000133991244,0.8767816440336306,0.0591583251953125,-0.9359588623046879,0.302291870117188,0.0136564237538173,0.00216195417292633,0.0127501500348634,0.0025177001953125,-1.01420593261719,0.0428924560546875,-0.0224618995820553,-0.026519225502791,-0.00868190515365832,0.025506591796875,-0.969307861328125,0.19901672363281256,-0.015293426265311596,-0.009261046816951305,0.0012320741940698996,0.010070445314549563,0.02049100612951997,0.08278887702498684,0.007322778994914195,0.0066962598063838525,0.004662092241009282,0
3.0867999649047833,1.7191706246138032,0.071624755859375,-0.9156951904296879,0.3795166015625,0.0439450874635065,0.0653864637158435,0.0329134752800713,-0.081146240234375,-0.9831085205078121,0.214324951171875,-0.0770915893389597,-0.0720472959182407,-0.0460053088827918,0.0128961181640625,-0.9440057373046875,0.31458251953125005,-0.018887138450841955,-0.015662412560664255,0.0019794743750340986,0.034895352608183064,0.01945630380786633,0.049123684141429286,0.022275389182503363,0.03170630027878007,0.017928521873904486,0
7.2467999839782715,0.8502830423315055,0.17494201660156197,-0.854705810546875,0.37091064453125,0.0708251712940033,0.184721380581749,0.0755506843322399,-0.08343505859375,-1.06230163574219,0.18061828613281197,-0.19856635614074397,-0.168311780893008,-0.11375133332444501,0.06617614746093746,-0.9546734619140623,0.290164794921875,-0.028220069311936706,0.035539458641333,-0.013260507573521764,0.06825590874109289,0.052811530325807585,0.05338179246252049,0.059353660730857245,0.09322536931527207,0.051405450679246456,0
10.141999778747575,0.635596864040761,0.470382690429688,-0.7765045166015621,0.365859985351562,0.19721826399694603,0.482678772817013,0.166120531948091,-0.21124267578125,-1.04080200195312,0.17913818359375,-0.131368410251429,-0.255006196490575,-0.25208470877475797,-0.0525830078125,-0.9482666015624998,0.25676025390625007,-0.0019463233457847767,-0.01232770877011064,-0.007664854586001385,0.13069749882130938,0.062179448882385316,0.04596394666127708,0.07190058334228139,0.13469721328004874,0.07768844703907134,0
11.536399841308576,0.43676722546631364,0.128128051757812,-0.793304443359375,0.34661865234375,0.108007960117581,0.121627365932246,0.0754172599616269,-0.08941650390625,-1.04281616210938,0.103302001953125,-0.142622662701995,-0.12004385034808501,-0.117591078984122,0.04279846191406248,-0.9524468994140629,0.23222351074218758,-0.00011837218413184802,0.004425619794204949,-0.0013773869157889798,0.055325277753770115,0.052731217161750804,0.06445374633027204,0.057393249500526225,0.05801884013354124,0.04509965114721027,0
11.262799911499016,0.39483658291830753,0.0765228271484375,-0.88751220703125,0.309417724609375,0.0936497934165274,0.06809223538336401,0.11207806921154902,-0.11651611328125,-1.05059814453125,0.122512817382812,-0.0894747557756102,-0.0956397073830346,-0.0634980161868683,-0.0200274658203125,-0.9701062011718748,0.19483154296875,-0.010212658190302785,-0.013207073909410436,0.010634311159372854,0.05343779667955298,0.040880675759787655,0.04225641232469567,0.04581579159874669,0.0382480159825489,0.03546724863238846,0
10.637999839782733,0.07729820004515478,0.133468627929688,-0.86163330078125,0.308258056640625,0.04644952415261701,0.0663055206080298,0.0699559155142014,-0.0423736572265625,-1.10551452636719,0.18501281738281197,-0.11077738133515401,-0.0683689378206232,-0.0636524795300929,0.02072204589843754,-0.9564056396484378,0.24823974609374994,-0.021494351852740817,-0.0033501714301647978,-0.0061822195439325016,0.04706787961130737,0.04143024644620653,0.03503419543807576,0.04088165414716038,0.041092061169786934,0.029117972636336927,0
10.715600128173842,0.06646298641895941,0.1273193359375,-0.7642974853515621,0.31842041015625,0.0513707795309745,0.10746920262905801,0.0669113897560228,-0.100601196289062,-1.01286315917969,0.166229248046875,-0.0990432272561559,-0.121951738953017,-0.0941808277378892,0.03826171875000002,-0.9502392578125002,0.24474243164062504,-0.03005999404585063,0.006832584787418614,-0.0034813907033951867,0.05090694527407847,0.04873644553088238,0.0318749785432946,0.03570692743341453,0.053701316886651605,0.03831137533533956,0
10.935599975585912,0.04388248781886442,0.125991821289062,-0.8692626953125,0.361495971679688,0.0645012289695011,0.160828564545994,0.20215390044519,-0.262237548828125,-1.13368225097656,0.17616271972656197,-0.0783299592458466,-0.31896653744268105,-0.0933243551313197,0.01811096191406246,-0.980834350585937,0.25089111328125013,-0.022124583598385886,-0.018279106816043778,0.0036590235481034853,0.09758857020139555,0.057885790950496736,0.04193891682891363,0.037093265154648475,0.11184526206190024,0.07724384987124641,0
10.800800018310543,0.07968266980330621,0.109390258789062,-0.8436126708984379,0.311981201171875,0.0492341253884039,0.07232639520048101,0.0707388848746847,-0.14569091796875,-1.02471923828125,0.17015075683593803,-0.0619382027364089,-0.14252758785107902,-0.0439259127036579,0.00693542480468748,-0.9605505371093748,0.23579284667968767,-0.006892836143920524,-0.01629341129670327,0.002956875800381903,0.06157698507319804,0.03922465411320392,0.036736923439761676,0.024931187996208012,0.05489503474053612,0.03080150414395875,0
9.500800113677993,1.4390852185287022,0.123794555664062,-0.9188995361328121,0.269973754882812,0.0364546805815497,0.0863343562181887,0.0296732071817719,-0.100250244140625,-1.05155944824219,-0.010711669921875,-0.0612463134852063,-0.0573493098620933,-0.0666173767716781,0.02536132812499998,-0.9874859619140625,0.09834838867187498,-0.015299807199283427,0.0002693308073618963,-0.002417713511373167,0.04646902247389143,0.028536161148938192,0.07716807245326238,0.022263990226371724,0.03697958013447091,0.026836278933687393,0
3.2603999423980694,1.3775989373606599,0.103073120117188,-0.855377197265625,0.4378662109375,0.0686943761058309,0.0650604927984178,0.0681010238149612,-0.026763916015625,-1.01724243164062,0.013458251953125,-0.0417229458499444,-0.0876608767571572,-0.0409676733647979,0.01569030761718752,-0.9582684326171875,0.2298095703124999,-0.01247156207955235,-0.0011094516048382912,0.0049077052147310975,0.024795481176079333,0.03942661036711517,0.1475291544999896,0.02100864310806593,0.026794143742099902,0.020093210630822044,0
7.205599937438964,1.754337649041051,0.161376953125,-0.842193603515625,0.412673950195312,0.0479147953843786,0.16421317597537602,0.0578188251622743,-0.074127197265625,-1.02009582519531,0.20878601074218803,-0.0818341466081728,-0.12134480454058802,-0.10774057874413699,0.036094970703124944,-0.9382891845703122,0.34898681640624996,-0.015120619068498525,0.01843448628668338,-0.014873488371983544,0.06057008978243133,0.041097402772144465,0.04754331135628326,0.03515168394604881,0.07000168846159331,0.04159668855739429,0
